%time,field.header.seq,field.header.stamp,field.header.frame_id,field.orientation.x,field.orientation.y,field.orientation.z,field.orientation.w,field.orientation_covariance0,field.orientation_covariance1,field.orientation_covariance2,field.orientation_covariance3,field.orientation_covariance4,field.orientation_covariance5,field.orientation_covariance6,field.orientation_covariance7,field.orientation_covariance8,field.angular_velocity.x,field.angular_velocity.y,field.angular_velocity.z,field.angular_velocity_covariance0,field.angular_velocity_covariance1,field.angular_velocity_covariance2,field.angular_velocity_covariance3,field.angular_velocity_covariance4,field.angular_velocity_covariance5,field.angular_velocity_covariance6,field.angular_velocity_covariance7,field.angular_velocity_covariance8,field.linear_acceleration.x,field.linear_acceleration.y,field.linear_acceleration.z,field.linear_acceleration_covariance0,field.linear_acceleration_covariance1,field.linear_acceleration_covariance2,field.linear_acceleration_covariance3,field.linear_acceleration_covariance4,field.linear_acceleration_covariance5,field.linear_acceleration_covariance6,field.linear_acceleration_covariance7,field.linear_acceleration_covariance8
1592874836524985426,1811,1592874836524879606,imu_link,0.00109645775876,0.00383380306089,0.882795721305,0.469740156022,0.0,0.0,0.0,0.0,0.0,0.0,0.0,0.0,0.0,0.00310191451264,-0.00103007533078,0.0012158453794,0.0,0.0,0.0,0.0,0.0,0.0,0.0,0.0,0.0,0.00486515235389,-0.0575796755962,-9.81265799999,0.0,0.0,0.0,0.0,0.0,0.0,0.0,0.0,0.0
1592874836535036174,1812,1592874836534884357,imu_link,0.00111349217682,0.00383036176005,0.882810725352,0.469711945417,0.0,0.0,0.0,0.0,0.0,0.0,0.0,0.0,0.0,0.00307982692054,-0.00236598714228,0.00975082719213,0.0,0.0,0.0,0.0,0.0,0.0,0.0,0.0,0.0,0.0072674849187,-0.0551670592278,-9.81262061596,0.0,0.0,0.0,0.0,0.0,0.0,0.0,0.0,0.0
1592874836545327558,1813,1592874836545164188,imu_link,0.00112319656236,0.00383209830123,0.88281713277,0.469699865383,0.0,0.0,0.0,0.0,0.0,0.0,0.0,0.0,0.0,0.00308928192255,-0.00109538207388,0.00610228508646,0.0,0.0,0.0,0.0,0.0,0.0,0.0,0.0,0.0,0.0120909806807,-0.0574825145304,-9.8199280262,0.0,0.0,0.0,0.0,0.0,0.0,0.0,0.0,0.0
1592874836555405357,1814,1592874836555244202,imu_link,0.00111840581277,0.00384578995347,0.882812189165,0.469709056471,0.0,0.0,0.0,0.0,0.0,0.0,0.0,0.0,0.0,0.00432361624564,0.00141311812521,0.00125160910981,0.0,0.0,0.0,0.0,0.0,0.0,0.0,0.0,0.0,0.0241340311244,-0.0524952006526,-9.83198087215,0.0,0.0,0.0,0.0,0.0,0.0,0.0,0.0,0.0
1592874836565077970,1815,1592874836564910082,imu_link,0.00111720948207,0.00385056034673,0.882803316176,0.469725696525,0.0,0.0,0.0,0.0,0.0,0.0,0.0,0.0,0.0,0.00310187888246,0.000191539521143,0.00123210964733,0.0,0.0,0.0,0.0,0.0,0.0,0.0,0.0,0.0,0.0217379733454,-0.0524626310915,-9.83441901207,0.0,0.0,0.0,0.0,0.0,0.0,0.0,0.0,0.0
1592874836575314278,1816,1592874836575111645,imu_link,0.00112798732964,0.00386399346604,0.882774359984,0.469779976748,0.0,0.0,0.0,0.0,0.0,0.0,0.0,0.0,0.0,0.00556740323008,-0.000915881246855,-0.00732924864317,0.0,0.0,0.0,0.0,0.0,0.0,0.0,0.0,0.0,0.0193356316537,-0.0548752292059,-9.83445756435,0.0,0.0,0.0,0.0,0.0,0.0,0.0,0.0,0.0
1592874836585069949,1817,1592874836584900939,imu_link,0.0010899114875,0.0038811956372,0.882777390127,0.469774230768,0.0,0.0,0.0,0.0,0.0,0.0,0.0,0.0,0.0,0.00186751660137,0.00867763830053,0.00622966064734,0.0,0.0,0.0,0.0,0.0,0.0,0.0,0.0,0.0,0.0145246837521,-0.052494872082,-9.83200540543,0.0,0.0,0.0,0.0,0.0,0.0,0.0,0.0,0.0
1592874836595334351,1818,1592874836594938361,imu_link,0.00107981206212,0.00387109510926,0.88277148939,0.469785425646,0.0,0.0,0.0,0.0,0.0,0.0,0.0,0.0,0.0,-0.0005664839425,0.00139696152804,0.0024605291001,0.0,0.0,0.0,0.0,0.0,0.0,0.0,0.0,0.0,0.0121348973364,-0.0548425227404,-9.83690505028,0.0,0.0,0.0,0.0,0.0,0.0,0.0,0.0,0.0
1592874836605096693,1819,1592874836604891455,imu_link,0.00109093407222,0.00387185429074,0.882742619662,0.469839638642,0.0,0.0,0.0,0.0,0.0,0.0,0.0,0.0,0.0,0.003123922522,-0.000915803939762,-0.00733561734319,0.0,0.0,0.0,0.0,0.0,0.0,0.0,0.0,0.0,0.00730512564769,-0.0573849336244,-9.82723076344,0.0,0.0,0.0,0.0,0.0,0.0,0.0,0.0,0.0
1592874836615061268,1820,1592874836614867682,imu_link,0.00107403572827,0.00389565820983,0.882736994899,0.46985004856,0.0,0.0,0.0,0.0,0.0,0.0,0.0,0.0,0.0,0.00432041004939,0.00628327600932,0.00253840627552,0.0,0.0,0.0,0.0,0.0,0.0,0.0,0.0,0.0,0.00727375742281,-0.0599599733949,-9.81511366367,0.0,0.0,0.0,0.0,0.0,0.0,0.0,0.0,0.0
1592874836625052403,1821,1592874836624874587,imu_link,0.00109022726572,0.00386750948538,0.882733817817,0.469856212747,0.0,0.0,0.0,0.0,0.0,0.0,0.0,0.0,0.0,-0.00179138725544,-0.00472743910851,0.00359730616367,0.0,0.0,0.0,0.0,0.0,0.0,0.0,0.0,0.0,0.00966355239507,-0.0600250121206,-9.8102478981,0.0,0.0,0.0,0.0,0.0,0.0,0.0,0.0,0.0
1592874836635089645,1822,1592874836634866724,imu_link,0.00111532484123,0.00385300869668,0.88271021426,0.469900615041,0.0,0.0,0.0,0.0,0.0,0.0,0.0,0.0,0.0,0.00189901927408,-0.00581858509182,-0.00618251125317,0.0,0.0,0.0,0.0,0.0,0.0,0.0,0.0,0.0,0.0168517394224,-0.0552972735837,-9.80287623405,0.0,0.0,0.0,0.0,0.0,0.0,0.0,0.0,0.0
1592874836645519351,1823,1592874836645300227,imu_link,0.00110040217714,0.00383119325652,0.882681241319,0.469955250313,0.0,0.0,0.0,0.0,0.0,0.0,0.0,0.0,0.0,-0.00298159008681,0.00032234239021,-0.00855674951342,0.0,0.0,0.0,0.0,0.0,0.0,0.0,0.0,0.0,0.0192415281199,-0.0529496229254,-9.79797775745,0.0,0.0,0.0,0.0,0.0,0.0,0.0,0.0,0.0
1592874836655175132,1824,1592874836654876777,imu_link,0.00111291302477,0.00380479297136,0.88267210574,0.469972593587,0.0,0.0,0.0,0.0,0.0,0.0,0.0,0.0,0.0,-0.000560226814363,-0.00590012099282,-8.07627813125e-05,0.0,0.0,0.0,0.0,0.0,0.0,0.0,0.0,0.0,0.0288696941454,-0.0456144804135,-9.80514497757,0.0,0.0,0.0,0.0,0.0,0.0,0.0,0.0,0.0
1592874836665091084,1825,1592874836664867992,imu_link,0.00108291819275,0.00378484879862,0.882680537172,0.469956988996,0.0,0.0,0.0,0.0,0.0,0.0,0.0,0.0,0.0,-0.00302261993215,0.00133174802159,0.007340568118,0.0,0.0,0.0,0.0,0.0,0.0,0.0,0.0,0.0,0.0384978647344,-0.0406919679604,-9.81234607697,0.0,0.0,0.0,0.0,0.0,0.0,0.0,0.0,0.0
1592874836675132355,1826,1592874836674867023,imu_link,0.00106204037075,0.00379030888968,0.882680346228,0.469957351269,0.0,0.0,0.0,0.0,0.0,0.0,0.0,0.0,0.0,0.00187373978981,0.00260218456183,0.00370464273789,0.0,0.0,0.0,0.0,0.0,0.0,0.0,0.0,0.0,0.0337182873394,-0.0453873331659,-9.82214186192,0.0,0.0,0.0,0.0,0.0,0.0,0.0,0.0,0.0
1592874836685098272,1827,1592874836684892653,imu_link,0.00108821571218,0.00380629918627,0.882682694962,0.469952750697,0.0,0.0,0.0,0.0,0.0,0.0,0.0,0.0,0.0,0.00797921026658,-0.00474407346221,0.00484406215658,0.0,0.0,0.0,0.0,0.0,0.0,0.0,0.0,0.0,0.0337308300659,-0.0477350705303,-9.82703332901,0.0,0.0,0.0,0.0,0.0,0.0,0.0,0.0,0.0
1592874836695065332,1828,1592874836694873169,imu_link,0.0010736055189,0.00380802195791,0.882682461266,0.469953209281,0.0,0.0,0.0,0.0,0.0,0.0,0.0,0.0,0.0,0.00187371651316,0.00138057346473,0.00368828640364,0.0,0.0,0.0,0.0,0.0,0.0,0.0,0.0,0.0,0.0313535897993,-0.0451924405992,-9.83672747612,0.0,0.0,0.0,0.0,0.0,0.0,0.0,0.0,0.0
1592874836705149804,1829,1592874836704880735,imu_link,0.0010541386667,0.00381371493375,0.882676543497,0.469964321976,0.0,0.0,0.0,0.0,0.0,0.0,0.0,0.0,0.0,0.00188001356271,0.00263485301769,0.001261362157,0.0,0.0,0.0,0.0,0.0,0.0,0.0,0.0,0.0,0.0313535897993,-0.0476051117294,-9.8367590189,0.0,0.0,0.0,0.0,0.0,0.0,0.0,0.0,0.0
1592874836715073481,1830,1592874836714891477,imu_link,0.00103991150502,0.00383444812027,0.882664769836,0.469986297334,0.0,0.0,0.0,0.0,0.0,0.0,0.0,0.0,0.0,0.00432976804368,0.00266742706657,-0.00117558002253,0.0,0.0,0.0,0.0,0.0,0.0,0.0,0.0,0.0,0.03613944198,-0.0549407607876,-9.82955441475,0.0,0.0,0.0,0.0,0.0,0.0,0.0,0.0,0.0
1592874836725111075,1831,1592874836724876361,imu_link,0.00103257391217,0.0038416570113,0.882658756161,0.469997548541,0.0,0.0,0.0,0.0,0.0,0.0,0.0,0.0,0.0,0.00187999964873,0.000191622419834,0.00122868030731,0.0,0.0,0.0,0.0,0.0,0.0,0.0,0.0,0.0,0.0361206199042,-0.0622762592509,-9.82236149311,0.0,0.0,0.0,0.0,0.0,0.0,0.0,0.0,0.0
1592874836735038820,1832,1592874836734908523,imu_link,0.0010442483113,0.00383055782024,0.882649675546,0.4700146664,0.0,0.0,0.0,0.0,0.0,0.0,0.0,0.0,0.0,0.000661420172994,-0.00467848687914,-6.14068717336e-05,0.0,0.0,0.0,0.0,0.0,0.0,0.0,0.0,0.0,0.0337120079901,-0.0598959477618,-9.81990582943,0.0,0.0,0.0,0.0,0.0,0.0,0.0,0.0,0.0
1592874836745359449,1833,1592874836745149762,imu_link,0.00104414518409,0.00383267003133,0.882655048209,0.470004559842,0.0,0.0,0.0,0.0,0.0,0.0,0.0,0.0,0.0,0.00186737043961,-0.00109528233538,0.00609879124801,0.0,0.0,0.0,0.0,0.0,0.0,0.0,0.0,0.0,0.0312783083413,-0.0600582251325,-9.80776302814,0.0,0.0,0.0,0.0,0.0,0.0,0.0,0.0,0.0
1592874836755434192,1834,1592874836754961378,imu_link,0.00110760918874,0.00384072651353,0.882659891737,0.469995252679,0.0,0.0,0.0,0.0,0.0,0.0,0.0,0.0,0.0,0.00919772712943,-0.0120901333096,0.00597077018266,0.0,0.0,0.0,0.0,0.0,0.0,0.0,0.0,0.0,0.0336931904778,-0.057580661308,-9.81258440018,0.0,0.0,0.0,0.0,0.0,0.0,0.0,0.0,0.0
1592874836765376345,1835,1592874836765198087,imu_link,0.00115314008848,0.00385231854693,0.882665022192,0.46998541308,0.0,0.0,0.0,0.0,0.0,0.0,0.0,0.0,0.0,0.00797599158676,-0.00842521588427,0.00601657707317,0.0,0.0,0.0,0.0,0.0,0.0,0.0,0.0,0.0,0.0313034006394,-0.0599283393472,-9.81748170853,0.0,0.0,0.0,0.0,0.0,0.0,0.0,0.0,0.0
1592874836775366408,1836,1592874836774973124,imu_link,0.00113505240864,0.00383007845993,0.882673345768,0.469970006304,0.0,0.0,0.0,0.0,0.0,0.0,0.0,0.0,0.0,-0.00424443271689,0.000110235996549,0.0073209195029,0.0,0.0,0.0,0.0,0.0,0.0,0.0,0.0,0.0,0.0265112759545,-0.0622759306803,-9.82238602638,0.0,0.0,0.0,0.0,0.0,0.0,0.0,0.0,0.0
1592874836785445730,1837,1592874836785222638,imu_link,0.00116267166286,0.00383724020233,0.882678550607,0.469960104775,0.0,0.0,0.0,0.0,0.0,0.0,0.0,0.0,0.0,0.00553252518277,-0.00476025632689,0.00605921469798,0.0,0.0,0.0,0.0,0.0,0.0,0.0,0.0,0.0,0.0217191489879,-0.0597981295548,-9.82722609043,0.0,0.0,0.0,0.0,0.0,0.0,0.0,0.0,0.0
1592874836795219234,1838,1592874836794963069,imu_link,0.00117092303282,0.00386524080281,0.882686873684,0.469944222093,0.0,0.0,0.0,0.0,0.0,0.0,0.0,0.0,0.0,0.00675109406048,0.00133148157544,0.00736559819099,0.0,0.0,0.0,0.0,0.0,0.0,0.0,0.0,0.0,0.0144995914539,-0.0671008896083,-9.82248182297,0.0,0.0,0.0,0.0,0.0,0.0,0.0,0.0,0.0
1592874836805250696,1839,1592874836804935028,imu_link,0.00118198550605,0.00389275975464,0.882703677905,0.469912402842,0.0,0.0,0.0,0.0,0.0,0.0,0.0,0.0,0.0,0.00674162839542,0.00128250294853,0.0110304334329,0.0,0.0,0.0,0.0,0.0,0.0,0.0,0.0,0.0,0.00966982832178,-0.0696433004923,-9.81280753613,0.0,0.0,0.0,0.0,0.0,0.0,0.0,0.0,0.0
1592874836815491092,1840,1592874836814961520,imu_link,0.00119656122537,0.0039113687975,0.882688861172,0.469940042769,0.0,0.0,0.0,0.0,0.0,0.0,0.0,0.0,0.0,0.00555459300923,0.000240497748478,-0.00242684973535,0.0,0.0,0.0,0.0,0.0,0.0,0.0,0.0,0.0,0.0048526044935,-0.0697080836631,-9.80796046257,0.0,0.0,0.0,0.0,0.0,0.0,0.0,0.0,0.0
1592874836825107098,1841,1592874836824896369,imu_link,0.00119220289535,0.00390977016643,0.882674254501,0.469967501845,0.0,0.0,0.0,0.0,0.0,0.0,0.0,0.0,0.0,0.000667678666521,0.00146228543604,-0.00242315511951,0.0,0.0,0.0,0.0,0.0,0.0,0.0,0.0,0.0,0.00726120899199,-0.0648503133096,-9.81031916142,0.0,0.0,0.0,0.0,0.0,0.0,0.0,0.0,0.0
1592874836835275579,1842,1592874836834972044,imu_link,0.00119244640766,0.00388377426882,0.882680070189,0.469956793823,0.0,0.0,0.0,0.0,0.0,0.0,0.0,0.0,0.0,-0.00302274294731,-0.00233305939232,0.00729132460539,0.0,0.0,0.0,0.0,0.0,0.0,0.0,0.0,0.0,0.0144933155272,-0.0623079936951,-9.81998643875,0.0,0.0,0.0,0.0,0.0,0.0,0.0,0.0,0.0
1592874836845413882,1843,1592874836844989760,imu_link,0.00119327536037,0.00385101219061,0.882657316397,0.46999979533,0.0,0.0,0.0,0.0,0.0,0.0,0.0,0.0,0.0,-0.00421292809363,-0.00339137801435,-0.00494434577523,0.0,0.0,0.0,0.0,0.0,0.0,0.0,0.0,0.0,0.0168956503738,-0.0623080712743,-9.8199805975,0.0,0.0,0.0,0.0,0.0,0.0,0.0,0.0,0.0
1592874836855172577,1844,1592874836854915842,imu_link,0.00117640778423,0.0038388324668,0.882643314269,0.470026232466,0.0,0.0,0.0,0.0,0.0,0.0,0.0,0.0,0.0,-0.00300067330033,0.00144608826728,-0.00121105676092,0.0,0.0,0.0,0.0,0.0,0.0,0.0,0.0,0.0,0.0192791699897,-0.0696436290629,-9.81278300285,0.0,0.0,0.0,0.0,0.0,0.0,0.0,0.0,0.0
1592874836865815857,1845,1592874836865531219,imu_link,0.00119320903864,0.0038378163996,0.882663478782,0.469988330326,0.0,0.0,0.0,0.0,0.0,0.0,0.0,0.0,0.0,0.00307010612257,-0.0036365069063,0.0133987981746,0.0,0.0,0.0,0.0,0.0,0.0,0.0,0.0,0.0,0.0216877819039,-0.0599604799412,-9.81507627964,0.0,0.0,0.0,0.0,0.0,0.0,0.0,0.0,0.0
1592874836875236763,1846,1592874836874967423,imu_link,0.00116744093464,0.00382675937637,0.882678256382,0.469960731024,0.0,0.0,0.0,0.0,0.0,0.0,0.0,0.0,0.0,-0.00181050505885,0.00250442314396,0.0110245536726,0.0,0.0,0.0,0.0,0.0,0.0,0.0,0.0,0.0,0.0265050011687,-0.0502449529245,-9.81979484558,0.0,0.0,0.0,0.0,0.0,0.0,0.0,0.0,0.0
1592874836885118261,1847,1592874836884918443,imu_link,0.00115914556286,0.00380407912695,0.882692749016,0.469933714686,0.0,0.0,0.0,0.0,0.0,0.0,0.0,0.0,0.0,-0.0018105171523,-0.00238206103581,0.0109592323653,0.0,0.0,0.0,0.0,0.0,0.0,0.0,0.0,0.0,0.0337182873394,-0.0453873331659,-9.82214186192,0.0,0.0,0.0,0.0,0.0,0.0,0.0,0.0,0.0
1592874836895449179,1848,1592874836894966877,imu_link,0.00114594008411,0.00377748471833,0.882704314847,0.469912236467,0.0,0.0,0.0,0.0,0.0,0.0,0.0,0.0,0.0,-0.00302910202458,-0.00236568467584,0.00973444355008,0.0,0.0,0.0,0.0,0.0,0.0,0.0,0.0,0.0,0.0385229593143,-0.0453874974512,-9.82212901115,0.0,0.0,0.0,0.0,0.0,0.0,0.0,0.0,0.0
1592874836905674548,1849,1592874836905480771,imu_link,0.00112878092787,0.00378197367945,0.882721181472,0.469880557493,0.0,0.0,0.0,0.0,0.0,0.0,0.0,0.0,0.0,0.00185464110187,0.00128269800427,0.0110176356956,0.0,0.0,0.0,0.0,0.0,0.0,0.0,0.0,0.0,0.0385355043225,-0.0477352348156,-9.8270216465,0.0,0.0,0.0,0.0,0.0,0.0,0.0,0.0,0.0
1592874836915744763,1850,1592874836915203579,imu_link,0.00116655479555,0.00377748231144,0.882726223307,0.469871029606,0.0,0.0,0.0,0.0,0.0,0.0,0.0,0.0,0.0,0.0043107056361,-0.00842505307775,0.00600685497483,0.0,0.0,0.0,0.0,0.0,0.0,0.0,0.0,0.0,0.0289198855869,-0.0598308360204,-9.82477860451,0.0,0.0,0.0,0.0,0.0,0.0,0.0,0.0,0.0
1592874836925016577,1851,1592874836924865020,imu_link,0.00121079250014,0.00378565720755,0.882739812667,0.469845321265,0.0,0.0,0.0,0.0,0.0,0.0,0.0,0.0,0.0,0.00674469311124,-0.00725248978733,0.00969432552532,0.0,0.0,0.0,0.0,0.0,0.0,0.0,0.0,0.0,0.0168831042247,-0.0647856944241,-9.81515338421,0.0,0.0,0.0,0.0,0.0,0.0,0.0,0.0,0.0
1592874836935604221,1852,1592874836934971714,imu_link,0.00121964937959,0.00378921622826,0.882733731304,0.469856695083,0.0,0.0,0.0,0.0,0.0,0.0,0.0,0.0,0.0,0.0031015836981,0.000191638251858,0.00123148091766,0.0,0.0,0.0,0.0,0.0,0.0,0.0,0.0,0.0,2.91136203487e-05,-0.0601545647718,-9.80055491924,0.0,0.0,0.0,0.0,0.0,0.0,0.0,0.0,0.0
1592874836945419123,1853,1592874836945173528,imu_link,0.00123551036567,0.00378501952632,0.882733318376,0.469857463248,0.0,0.0,0.0,0.0,0.0,0.0,0.0,0.0,0.0,0.00309526623272,-0.00106263670104,0.00365837447553,0.0,0.0,0.0,0.0,0.0,0.0,0.0,0.0,0.0,-0.00720298924716,-0.0530461268499,-9.79075679779,0.0,0.0,0.0,0.0,0.0,0.0,0.0,0.0,0.0
1592874836955338332,1854,1592874836954943986,imu_link,0.00120528784808,0.00375595631473,0.882739036411,0.469847032203,0.0,0.0,0.0,0.0,0.0,0.0,0.0,0.0,0.0,-0.00546313475265,0.00501310474489,0.0061611414662,0.0,0.0,0.0,0.0,0.0,0.0,0.0,0.0,0.0,-0.00960532694589,-0.0506333461963,-9.79073051214,0.0,0.0,0.0,0.0,0.0,0.0,0.0,0.0,0.0
1592874836965656586,1855,1592874836964946462,imu_link,0.00119320867041,0.00373408457234,0.882752236016,0.469822437388,0.0,0.0,0.0,0.0,0.0,0.0,0.0,0.0,0.0,-0.00302915820063,0.00129916981152,0.00978330943478,0.0,0.0,0.0,0.0,0.0,0.0,0.0,0.0,0.0,0.00241262578056,-0.05542667564,-9.79319376945,0.0,0.0,0.0,0.0,0.0,0.0,0.0,0.0,0.0
1592874836975212278,1856,1592874836975024542,imu_link,0.00119122547609,0.00374143436497,0.882762462462,0.469803168911,0.0,0.0,0.0,0.0,0.0,0.0,0.0,0.0,0.0,0.00308262349973,0.00131528362646,0.0085774446676,0.0,0.0,0.0,0.0,0.0,0.0,0.0,0.0,0.0,0.0120407938026,-0.0553295875899,-9.80045912266,0.0,0.0,0.0,0.0,0.0,0.0,0.0,0.0,0.0
1592874836985376590,1857,1592874836984894037,imu_link,0.00117234130128,0.00372611971195,0.882752607181,0.469821855774,0.0,0.0,0.0,0.0,0.0,0.0,0.0,0.0,0.0,-0.00300393983383,0.00142977432515,1.03382621613e-05,0.0,0.0,0.0,0.0,0.0,0.0,0.0,0.0,0.0,0.0192791699897,-0.0599928578362,-9.81265332699,0.0,0.0,0.0,0.0,0.0,0.0,0.0,0.0,0.0
1592874836995327440,1858,1592874836994950036,imu_link,0.00117198859164,0.00372558385131,0.882765590581,0.469797465462,0.0,0.0,0.0,0.0,0.0,0.0,0.0,0.0,0.0,0.00063600577517,-0.00114418749129,0.00976006815298,0.0,0.0,0.0,0.0,0.0,0.0,0.0,0.0,0.0,0.0265050011687,-0.0671337923035,-9.82002031803,0.0,0.0,0.0,0.0,0.0,0.0,0.0,0.0,0.0
1592874837005338473,1859,1592874837004992277,imu_link,0.00115844837548,0.00373334730946,0.882781471198,0.469767595971,0.0,0.0,0.0,0.0,0.0,0.0,0.0,0.0,0.0,0.000632849513186,0.00128273246412,0.0110143171472,0.0,0.0,0.0,0.0,0.0,0.0,0.0,0.0,0.0,0.0337371048518,-0.0694168195128,-9.82975418568,0.0,0.0,0.0,0.0,0.0,0.0,0.0,0.0,0.0
1592874837015282378,1860,1592874837014894825,imu_link,0.00114806277128,0.00373390578336,0.882797258889,0.469737947795,0.0,0.0,0.0,0.0,0.0,0.0,0.0,0.0,0.0,-0.000588879007472,6.11604188032e-05,0.0109948209357,0.0,0.0,0.0,0.0,0.0,0.0,0.0,0.0,0.0,0.0337308300659,-0.0718620054424,-9.82735693455,0.0,0.0,0.0,0.0,0.0,0.0,0.0,0.0,0.0
1592874837025127577,1861,1592874837024908252,imu_link,0.00115731871675,0.00375268726983,0.882821416004,0.46969237315,0.0,0.0,0.0,0.0,0.0,0.0,0.0,0.0,0.0,0.00428856680936,-0.00120959436301,0.0146559475177,0.0,0.0,0.0,0.0,0.0,0.0,0.0,0.0,0.0,0.0289261558093,-0.0742745168507,-9.82740015984,0.0,0.0,0.0,0.0,0.0,0.0,0.0,0.0,0.0
1592874837035241655,1862,1592874837034949983,imu_link,0.00113925994529,0.00377208879283,0.882840865678,0.469655702959,0.0,0.0,0.0,0.0,0.0,0.0,0.0,0.0,0.0,0.00185141995134,0.00370963018318,0.0122716922348,0.0,0.0,0.0,0.0,0.0,0.0,0.0,0.0,0.0,0.0289261558093,-0.0742745168507,-9.82740015984,0.0,0.0,0.0,0.0,0.0,0.0,0.0,0.0,0.0
1592874837045417770,1863,1592874837045196542,imu_link,0.00116609671264,0.00378131279799,0.882845650968,0.469646567601,0.0,0.0,0.0,0.0,0.0,0.0,0.0,0.0,0.0,0.00431064425856,-0.0047601751837,0.00605561630965,0.0,0.0,0.0,0.0,0.0,0.0,0.0,0.0,0.0,0.0241026617587,-0.0743717691861,-9.82012312412,0.0,0.0,0.0,0.0,0.0,0.0,0.0,0.0,0.0
1592874837055160335,1864,1592874837054932233,imu_link,0.00119070720594,0.00380527911703,0.882841800589,0.469653550184,0.0,0.0,0.0,0.0,0.0,0.0,0.0,0.0,0.0,0.00676355994293,-0.00348965541968,0.00241338230668,0.0,0.0,0.0,0.0,0.0,0.0,0.0,0.0,0.0,0.0289136108011,-0.0743394506164,-9.82254023552,0.0,0.0,0.0,0.0,0.0,0.0,0.0,0.0,0.0
1592874837065392416,1865,1592874837064979204,imu_link,0.00119390890711,0.00381835798464,0.882858127273,0.469622744159,0.0,0.0,0.0,0.0,0.0,0.0,0.0,0.0,0.0,0.00307629693175,-0.00116055266807,0.0109878748706,0.0,0.0,0.0,0.0,0.0,0.0,0.0,0.0,0.0,0.0337245598435,-0.071894474607,-9.82492697239,0.0,0.0,0.0,0.0,0.0,0.0,0.0,0.0,0.0
1592874837075787005,1866,1592874837075038228,imu_link,0.00120502807069,0.00384341078794,0.882880091529,0.469581217771,0.0,0.0,0.0,0.0,0.0,0.0,0.0,0.0,0.0,0.0055134424894,-0.0011932812011,0.0134374036071,0.0,0.0,0.0,0.0,0.0,0.0,0.0,0.0,0.0,0.0313096754253,-0.0767847232521,-9.82013714314,0.0,0.0,0.0,0.0,0.0,0.0,0.0,0.0,0.0
1592874837085254810,1867,1592874837084989397,imu_link,0.00120974553539,0.00386348020606,0.882879157308,0.469582797415,0.0,0.0,0.0,0.0,0.0,0.0,0.0,0.0,0.0,0.00431694741985,0.000158982815969,0.00367761997543,0.0,0.0,0.0,0.0,0.0,0.0,0.0,0.0,0.0,0.0240901167504,-0.0744367029518,-9.81526319981,0.0,0.0,0.0,0.0,0.0,0.0,0.0,0.0,0.0
1592874837095247047,1868,1592874837094961166,imu_link,0.00119833298973,0.00388371700783,0.88288315481,0.469575143819,0.0,0.0,0.0,0.0,0.0,0.0,0.0,0.0,0.0,0.00308890949612,0.00379124332625,0.00616665712244,0.0,0.0,0.0,0.0,0.0,0.0,0.0,0.0,0.0,0.0168642832898,-0.0721211928874,-9.80796163082,0.0,0.0,0.0,0.0,0.0,0.0,0.0,0.0,0.0
1592874837105096784,1869,1592874837104902196,imu_link,0.00120842960636,0.00389668916773,0.882895448126,0.469551896163,0.0,0.0,0.0,0.0,0.0,0.0,0.0,0.0,0.0,0.00430116975097,-0.00114425602088,0.00976934448393,0.0,0.0,0.0,0.0,0.0,0.0,0.0,0.0,0.0,0.0216564171016,-0.0673609121703,-9.80302460194,0.0,0.0,0.0,0.0,0.0,0.0,0.0,0.0,0.0
1592874837115132645,1870,1592874837114903210,imu_link,0.00118421206678,0.00390458532817,0.882902309906,0.469538989881,0.0,0.0,0.0,0.0,0.0,0.0,0.0,0.0,0.0,0.000642289886017,0.00377501026723,0.00738193085848,0.0,0.0,0.0,0.0,0.0,0.0,0.0,0.0,0.0,0.0288822391536,-0.0624383723363,-9.81023037434,0.0,0.0,0.0,0.0,0.0,0.0,0.0,0.0,0.0
1592874837125132686,1871,1592874837124905907,imu_link,0.00119524294375,0.00391426336031,0.882903051182,0.469537487481,0.0,0.0,0.0,0.0,0.0,0.0,0.0,0.0,0.0,0.00431377347281,-0.00230057350863,0.00486651437288,0.0,0.0,0.0,0.0,0.0,0.0,0.0,0.0,0.0,0.0289073337335,-0.062308486551,-9.81994905472,0.0,0.0,0.0,0.0,0.0,0.0,0.0,0.0,0.0
1592874837135527636,1872,1592874837135026718,imu_link,0.00118284580164,0.0039306844022,0.882915379514,0.46951419916,0.0,0.0,0.0,0.0,0.0,0.0,0.0,0.0,0.0,0.00307942354526,0.00252066374514,0.00981511236329,0.0,0.0,0.0,0.0,0.0,0.0,0.0,0.0,0.0,0.0289010612294,-0.0647536450997,-9.81755180359,0.0,0.0,0.0,0.0,0.0,0.0,0.0,0.0,0.0
1592874837145469528,1873,1592874837145267967,imu_link,0.00114398699201,0.00393501565936,0.882936503683,0.469474533292,0.0,0.0,0.0,0.0,0.0,0.0,0.0,0.0,0.0,-0.00181695217128,0.00613672984995,0.0135163059955,0.0,0.0,0.0,0.0,0.0,0.0,0.0,0.0,0.0,0.0288822391536,-0.067263746541,-9.81029462814,0.0,0.0,0.0,0.0,0.0,0.0,0.0,0.0,0.0
1592874837155252349,1874,1592874837154979863,imu_link,0.00118026791521,0.00393946099114,0.882939687716,0.46946841797,0.0,0.0,0.0,0.0,0.0,0.0,0.0,0.0,0.0,0.00553233012703,-0.00720340908124,0.00602592518464,0.0,0.0,0.0,0.0,0.0,0.0,0.0,0.0,0.0,0.0288759689312,-0.0648835263215,-9.80783312321,0.0,0.0,0.0,0.0,0.0,0.0,0.0,0.0,0.0
1592874837165512172,1875,1592874837164970638,imu_link,0.00118631494162,0.0039626997891,0.882935986257,0.469475168502,0.0,0.0,0.0,0.0,0.0,0.0,0.0,0.0,0.0,0.00676035686757,0.000158932995482,0.00368377827532,0.0,0.0,0.0,0.0,0.0,0.0,0.0,0.0,0.0,0.0264673592988,-0.0576778497547,-9.80531203747,0.0,0.0,0.0,0.0,0.0,0.0,0.0,0.0,0.0
1592874837175246362,1876,1592874837174937617,imu_link,0.00117290051831,0.00394968467173,0.882923913333,0.469498016567,0.0,0.0,0.0,0.0,0.0,0.0,0.0,0.0,0.0,-0.000560555613326,0.000208165487445,-1.66473917019e-08,0.0,0.0,0.0,0.0,0.0,0.0,0.0,0.0,0.0,0.0264736340847,-0.0479946002364,-9.80761349201,0.0,0.0,0.0,0.0,0.0,0.0,0.0,0.0,0.0
1592874837185348287,1877,1592874837184948089,imu_link,0.00118526679262,0.00393810866051,0.882917252616,0.46951060848,0.0,0.0,0.0,0.0,0.0,0.0,0.0,0.0,0.0,0.00187657915123,-0.00471104714408,0.00238420066727,0.0,0.0,0.0,0.0,0.0,0.0,0.0,0.0,0.0,0.0313034006394,-0.050277581811,-9.81735320091,0.0,0.0,0.0,0.0,0.0,0.0,0.0,0.0,0.0
1592874837195312210,1878,1592874837194969622,imu_link,0.00117021259382,0.00395488069092,0.882913821902,0.469516956686,0.0,0.0,0.0,0.0,0.0,0.0,0.0,0.0,0.0,0.00431686783711,0.00260227870873,0.00371005826551,0.0,0.0,0.0,0.0,0.0,0.0,0.0,0.0,0.0,0.0337057377677,-0.0502776593901,-9.81734735966,0.0,0.0,0.0,0.0,0.0,0.0,0.0,0.0,0.0
1592874837205091073,1879,1592874837204888861,imu_link,0.00118356403903,0.00394960684449,0.882912883809,0.469518731667,0.0,0.0,0.0,0.0,0.0,0.0,0.0,0.0,0.0,0.00309197473209,-0.00474372600292,0.0048305492149,0.0,0.0,0.0,0.0,0.0,0.0,0.0,0.0,0.0,0.0361143474001,-0.0502452814952,-9.81976914406,0.0,0.0,0.0,0.0,0.0,0.0,0.0,0.0,0.0
1592874837215222524,1880,1592874837215011645,imu_link,0.00121031256629,0.00394798364368,0.882900555139,0.469541860013,0.0,0.0,0.0,0.0,0.0,0.0,0.0,0.0,0.0,0.00432630957533,-0.00590008510256,-6.91124025391e-05,0.0,0.0,0.0,0.0,0.0,0.0,0.0,0.0,0.0,0.0264861813746,-0.0575804194435,-9.81260192394,0.0,0.0,0.0,0.0,0.0,0.0,0.0,0.0,0.0
1592874837225097881,1881,1592874837224888585,imu_link,0.00121054095726,0.00393413199214,0.882908498222,0.469527039652,0.0,0.0,0.0,0.0,0.0,0.0,0.0,0.0,0.0,-0.000582685207432,-0.00234932860167,0.00851854667597,0.0,0.0,0.0,0.0,0.0,0.0,0.0,0.0,0.0,0.0264924538787,-0.0599606442265,-9.81506342888,0.0,0.0,0.0,0.0,0.0,0.0,0.0,0.0,0.0
1592874837235337225,1882,1592874837234975721,imu_link,0.00122099279303,0.00391629778172,0.882923028316,0.469499837975,0.0,0.0,0.0,0.0,0.0,0.0,0.0,0.0,0.0,-0.000585846150754,-0.00480888658425,0.00970749985022,0.0,0.0,0.0,0.0,0.0,0.0,0.0,0.0,0.0,0.0288947887253,-0.0623734203167,-9.8150891304,0.0,0.0,0.0,0.0,0.0,0.0,0.0,0.0,0.0
1592874837245333891,1883,1592874837244899739,imu_link,0.00117195018682,0.00390408573863,0.882923689041,0.469498822126,0.0,0.0,0.0,0.0,0.0,0.0,0.0,0.0,0.0,-0.00545698243447,0.00626751134416,0.00373371228526,0.0,0.0,0.0,0.0,0.0,0.0,0.0,0.0,0.0,0.0289136108011,-0.0646886930801,-9.82241172791,0.0,0.0,0.0,0.0,0.0,0.0,0.0,0.0,0.0
1592874837255150796,1884,1592874837254906644,imu_link,0.00116755334097,0.00387099943844,0.882938281923,0.469471663147,0.0,0.0,0.0,0.0,0.0,0.0,0.0,0.0,0.0,-0.00547275594216,-0.00358708420248,0.00971118042204,0.0,0.0,0.0,0.0,0.0,0.0,0.0,0.0,0.0,0.0289261558093,-0.0694491380826,-9.82733590603,0.0,0.0,0.0,0.0,0.0,0.0,0.0,0.0,0.0
1592874837265190083,1885,1592874837264974385,imu_link,0.00118127152801,0.0038723266007,0.882952753558,0.469444399975,0.0,0.0,0.0,0.0,0.0,0.0,0.0,0.0,0.0,0.00185759788684,-0.00358733205331,0.00973008990592,0.0,0.0,0.0,0.0,0.0,0.0,0.0,0.0,0.0,0.0289324305952,-0.0742420339957,-9.82983012199,0.0,0.0,0.0,0.0,0.0,0.0,0.0,0.0,0.0
1592874837275311835,1886,1592874837275011497,imu_link,0.00117006204976,0.0038744981997,0.8829559892,0.469438324334,0.0,0.0,0.0,0.0,0.0,0.0,0.0,0.0,0.0,-0.000573240218281,0.00136454079297,0.00490260124564,0.0,0.0,0.0,0.0,0.0,0.0,0.0,0.0,0.0,0.0241089388262,-0.0767519939691,-9.82258579731,0.0,0.0,0.0,0.0,0.0,0.0,0.0,0.0,0.0
1592874837285039712,1887,1592874837284879960,imu_link,0.00115983879709,0.00386247641076,0.882964885254,0.469421716006,0.0,0.0,0.0,0.0,0.0,0.0,0.0,0.0,0.0,-0.00302300354178,0.000110354273475,0.00732318579055,0.0,0.0,0.0,0.0,0.0,0.0,0.0,0.0,0.0,0.0216940566897,-0.0768168684095,-9.8177328825,0.0,0.0,0.0,0.0,0.0,0.0,0.0,0.0,0.0
1592874837295275550,1888,1592874837294977076,imu_link,0.00113970570181,0.00388625926001,0.882963859796,0.469423497871,0.0,0.0,0.0,0.0,0.0,0.0,0.0,0.0,0.0,0.00309509146278,0.00504561351511,0.00373938944766,0.0,0.0,0.0,0.0,0.0,0.0,0.0,0.0,0.0,0.0241026617587,-0.069546390418,-9.82005887032,0.0,0.0,0.0,0.0,0.0,0.0,0.0,0.0,0.0
1592874837305522560,1889,1592874837305213024,imu_link,0.00111497295525,0.00390557937584,0.882965602226,0.469420119478,0.0,0.0,0.0,0.0,0.0,0.0,0.0,0.0,0.0,0.00187020707025,0.00502933546324,0.00495783635051,0.0,0.0,0.0,0.0,0.0,0.0,0.0,0.0,0.0,0.0289010612294,-0.0695790238678,-9.81761722565,0.0,0.0,0.0,0.0,0.0,0.0,0.0,0.0,0.0
1592874837315214028,1890,1592874837314968733,imu_link,0.00113641417345,0.00389092113005,0.882955460343,0.469439265877,0.0,0.0,0.0,0.0,0.0,0.0,0.0,0.0,0.0,0.00066109143905,-0.00589991501396,-7.87321453805e-05,0.0,0.0,0.0,0.0,0.0,0.0,0.0,0.0,0.0,0.0240712946746,-0.0648833620362,-9.80784597397,0.0,0.0,0.0,0.0,0.0,0.0,0.0,0.0,0.0
1592874837325195815,1891,1592874837324997490,imu_link,0.00113208246751,0.00386949369131,0.882945649626,0.46945790569,0.0,0.0,0.0,0.0,0.0,0.0,0.0,0.0,0.0,-0.00300409587842,-0.00223492320736,-3.92342922181e-05,0.0,0.0,0.0,0.0,0.0,0.0,0.0,0.0,0.0,0.0264673592988,-0.0649159361608,-9.80541017056,0.0,0.0,0.0,0.0,0.0,0.0,0.0,0.0,0.0
1592874837335437905,1892,1592874837334977464,imu_link,0.00116484424308,0.00385725799034,0.882952659573,0.469444741851,0.0,0.0,0.0,0.0,0.0,0.0,0.0,0.0,0.0,0.00186388427334,-0.00844114439626,0.00722143847361,0.0,0.0,0.0,0.0,0.0,0.0,0.0,0.0,0.0,0.0312783083413,-0.0672963069752,-9.80785882473,0.0,0.0,0.0,0.0,0.0,0.0,0.0,0.0,0.0
1592874837345381080,1893,1592874837344947419,imu_link,0.00116264086537,0.00384723822698,0.88295426743,0.469441805394,0.0,0.0,0.0,0.0,0.0,0.0,0.0,0.0,0.0,-0.000573267721141,-0.00230029548918,0.00485350857614,0.0,0.0,0.0,0.0,0.0,0.0,0.0,0.0,0.0,0.0336931904778,-0.0624060537666,-9.81264748573,0.0,0.0,0.0,0.0,0.0,0.0,0.0,0.0,0.0
1592874837355317371,1894,1592874837354974592,imu_link,0.00117216105794,0.00382421081893,0.882947219237,0.46945522629,0.0,0.0,0.0,0.0,0.0,0.0,0.0,0.0,0.0,-0.00178553857402,-0.00469451109848,0.00115283444239,0.0,0.0,0.0,0.0,0.0,0.0,0.0,0.0,0.0,0.0240712946746,-0.0624706726521,-9.80781326294,0.0,0.0,0.0,0.0,0.0,0.0,0.0,0.0,0.0
1592874837365135499,1895,1592874837364895845,imu_link,0.00120923908728,0.00380725568092,0.882941591611,0.469465854294,0.0,0.0,0.0,0.0,0.0,0.0,0.0,0.0,0.0,0.00187963775531,-0.00835950498568,0.00111330535592,0.0,0.0,0.0,0.0,0.0,0.0,0.0,0.0,0.0,0.0168454634957,-0.0625678337179,-9.80054323673,0.0,0.0,0.0,0.0,0.0,0.0,0.0,0.0,0.0
1592874837375152153,1896,1592874837374922929,imu_link,0.0012238568529,0.00381040824121,0.882941927006,0.469465160048,0.0,0.0,0.0,0.0,0.0,0.0,0.0,0.0,0.0,0.00309505193148,-0.00228409129841,0.00364130631786,0.0,0.0,0.0,0.0,0.0,0.0,0.0,0.0,0.0,0.0144243065733,-0.065077866707,-9.79329073429,0.0,0.0,0.0,0.0,0.0,0.0,0.0,0.0,0.0
1592874837385274286,1897,1592874837384973076,imu_link,0.00120895473976,0.00380987655579,0.882942486083,0.469464151495,0.0,0.0,0.0,0.0,0.0,0.0,0.0,0.0,0.0,-0.0005701333054,0.00260252603941,0.00369713257166,0.0,0.0,0.0,0.0,0.0,0.0,0.0,0.0,0.0,0.0144305802183,-0.0674580869265,-9.79575340748,0.0,0.0,0.0,0.0,0.0,0.0,0.0,0.0,0.0
1592874837395449729,1898,1592874837395017481,imu_link,0.00127056228966,0.00380431176661,0.882931001014,0.469485633787,0.0,0.0,0.0,0.0,0.0,0.0,0.0,0.0,0.0,0.00555111581553,-0.0119918470618,-0.00136948623626,0.0,0.0,0.0,0.0,0.0,0.0,0.0,0.0,0.0,0.0192666204181,-0.069708576519,-9.80792307854,0.0,0.0,0.0,0.0,0.0,0.0,0.0,0.0,0.0
1592874837405133233,1899,1592874837404917024,imu_link,0.00125834614161,0.00379655147559,0.882931531529,0.4694847318,0.0,0.0,0.0,0.0,0.0,0.0,0.0,0.0,0.0,-0.00179186735264,0.000159330665376,0.00366130005159,0.0,0.0,0.0,0.0,0.0,0.0,0.0,0.0,0.0,0.0264987286646,-0.0695789462887,-9.8176230669,0.0,0.0,0.0,0.0,0.0,0.0,0.0,0.0,0.0
1592874837415328895,1900,1592874837414914962,imu_link,0.00121047521687,0.00376544102945,0.882929433401,0.469489054013,0.0,0.0,0.0,0.0,0.0,0.0,0.0,0.0,0.0,-0.00911907233177,0.00384078462397,0.0024697209069,0.0,0.0,0.0,0.0,0.0,0.0,0.0,0.0,0.0,0.0313222227152,-0.0670690045692,-9.82486739159,0.0,0.0,0.0,0.0,0.0,0.0,0.0,0.0,0.0
1592874837425111495,1901,1592874837424911236,imu_link,0.00118967692168,0.00376418171526,0.882930087232,0.469487887667,0.0,0.0,0.0,0.0,0.0,0.0,0.0,0.0,0.0,-0.00179187294424,0.0026025868968,0.00369392273437,0.0,0.0,0.0,0.0,0.0,0.0,0.0,0.0,0.0,0.0240963892546,-0.0719915626571,-9.81766161919,0.0,0.0,0.0,0.0,0.0,0.0,0.0,0.0,0.0
1592874837435229821,1902,1592874837434961413,imu_link,0.00115433675066,0.00380222257152,0.882926994139,0.46949348625,0.0,0.0,0.0,0.0,0.0,0.0,0.0,0.0,0.0,0.00309503710724,0.00871053510165,0.00378814506084,0.0,0.0,0.0,0.0,0.0,0.0,0.0,0.0,0.0,0.0264799065888,-0.0793271204457,-9.81046168804,0.0,0.0,0.0,0.0,0.0,0.0,0.0,0.0,0.0
1592874837445377743,1903,1592874837444952068,imu_link,0.00115969289299,0.00383351299162,0.882923540509,0.469499713424,0.0,0.0,0.0,0.0,0.0,0.0,0.0,0.0,0.0,0.00553849336833,0.00138071780598,0.00369647926496,0.0,0.0,0.0,0.0,0.0,0.0,0.0,0.0,0.0,0.021650140034,-0.0818695450202,-9.80078856945,0.0,0.0,0.0,0.0,0.0,0.0,0.0,0.0,0.0
1592874837455277806,1904,1592874837454957199,imu_link,0.00116061050263,0.00383393872754,0.882908596569,0.469527809615,0.0,0.0,0.0,0.0,0.0,0.0,0.0,0.0,0.0,-0.000557523211739,-0.000997003174553,-0.00123843062372,0.0,0.0,0.0,0.0,0.0,0.0,0.0,0.0,0.0,0.0240587519482,-0.0842498382553,-9.80324423313,0.0,0.0,0.0,0.0,0.0,0.0,0.0,0.0,0.0
1592874837465379891,1905,1592874837464920602,imu_link,0.00114756898712,0.00382108119464,0.882925342513,0.46949645576,0.0,0.0,0.0,0.0,0.0,0.0,0.0,0.0,0.0,-0.00425739065996,4.51640233552e-05,0.0122062034397,0.0,0.0,0.0,0.0,0.0,0.0,0.0,0.0,0.0,0.0264673592988,-0.0842174740508,-9.80566718578,0.0,0.0,0.0,0.0,0.0,0.0,0.0,0.0,0.0
1592874837475266068,1906,1592874837474964487,imu_link,0.00115998937713,0.00379911809882,0.882944577487,0.469460428804,0.0,0.0,0.0,0.0,0.0,0.0,0.0,0.0,0.0,-0.00303882360277,-0.00485768432947,0.0133656501417,0.0,0.0,0.0,0.0,0.0,0.0,0.0,0.0,0.0,0.0216438675299,-0.0794893065467,-9.79832589626,0.0,0.0,0.0,0.0,0.0,0.0,0.0,0.0,0.0
1592874837485098944,1907,1592874837484910096,imu_link,0.00115486073607,0.00378402951688,0.882952551321,0.469445566103,0.0,0.0,0.0,0.0,0.0,0.0,0.0,0.0,0.0,-0.00302620739737,-0.00112751126563,0.00852813665656,0.0,0.0,0.0,0.0,0.0,0.0,0.0,0.0,0.0,0.021650140034,-0.074631458614,-9.80069277287,0.0,0.0,0.0,0.0,0.0,0.0,0.0,0.0,0.0
1592874837495221197,1908,1592874837494945946,imu_link,0.00118657155883,0.00378098785203,0.882971205871,0.469410423598,0.0,0.0,0.0,0.0,0.0,0.0,0.0,0.0,0.0,0.00307296355915,-0.00606318863363,0.0121434412637,0.0,0.0,0.0,0.0,0.0,0.0,0.0,0.0,0.0,0.0168642832898,-0.0697084852494,-9.80792891979,0.0,0.0,0.0,0.0,0.0,0.0,0.0,0.0,0.0
1592874837505339653,1909,1592874837505139103,imu_link,0.00123284705966,0.00380853936016,0.882986882521,0.469380592284,0.0,0.0,0.0,0.0,0.0,0.0,0.0,0.0,0.0,0.010406476641,-0.00604711395988,0.0109407254765,0.0,0.0,0.0,0.0,0.0,0.0,0.0,0.0,0.0,0.0192854424939,-0.0647857811302,-9.8151463747,0.0,0.0,0.0,0.0,0.0,0.0,0.0,0.0,0.0
1592874837515183680,1910,1592874837514932915,imu_link,0.00125248126784,0.00382110484849,0.882985551948,0.469382941211,0.0,0.0,0.0,0.0,0.0,0.0,0.0,0.0,0.0,0.00553848608625,-0.00350574205685,0.00363104326492,0.0,0.0,0.0,0.0,0.0,0.0,0.0,0.0,0.0,0.0265175507404,-0.0622434660792,-9.82481598854,0.0,0.0,0.0,0.0,0.0,0.0,0.0,0.0,0.0
1592874837525093842,1911,1592874837524884536,imu_link,0.00125564025166,0.00383267126035,0.882995657209,0.469363828334,0.0,0.0,0.0,0.0,0.0,0.0,0.0,0.0,0.0,0.00430413381803,-0.00112774923364,0.00854699204497,0.0,0.0,0.0,0.0,0.0,0.0,0.0,0.0,0.0,0.0313410402276,-0.0573208349757,-9.83202643394,0.0,0.0,0.0,0.0,0.0,0.0,0.0,0.0,0.0
1592874837535355529,1912,1592874837534977183,imu_link,0.00120915664726,0.00384046378808,0.883011946528,0.469333240957,0.0,0.0,0.0,0.0,0.0,0.0,0.0,0.0,0.0,-0.000589092723547,0.00739112760669,0.0110918713103,0.0,0.0,0.0,0.0,0.0,0.0,0.0,0.0,0.0,0.0313347700052,-0.0525279071182,-9.82953455448,0.0,0.0,0.0,0.0,0.0,0.0,0.0,0.0,0.0
1592874837545226196,1913,1592874837545008344,imu_link,0.00117700372938,0.00383665651619,0.883016543916,0.469324704123,0.0,0.0,0.0,0.0,0.0,0.0,0.0,0.0,0.0,-0.00179821160567,0.00379160873068,0.00615325393213,0.0,0.0,0.0,0.0,0.0,0.0,0.0,0.0,0.0,0.0313222227152,-0.0574182333425,-9.82473888397,0.0,0.0,0.0,0.0,0.0,0.0,0.0,0.0,0.0
1592874837555553848,1914,1592874837555024587,imu_link,0.00116064407311,0.00383962183809,0.883015304646,0.469327052246,0.0,0.0,0.0,0.0,0.0,0.0,0.0,0.0,0.0,0.000651543980615,0.00260255490766,0.00369998636721,0.0,0.0,0.0,0.0,0.0,0.0,0.0,0.0,0.0,0.0217003269121,-0.0598955461755,-9.81993620396,0.0,0.0,0.0,0.0,0.0,0.0,0.0,0.0,0.0
1592874837565365103,1915,1592874837565181586,imu_link,0.00114084036546,0.00383496360019,0.883020223138,0.469317884878,0.0,0.0,0.0,0.0,0.0,0.0,0.0,0.0,0.0,-0.000579654236254,0.00255362452453,0.00736166222619,0.0,0.0,0.0,0.0,0.0,0.0,0.0,0.0,0.0,0.0217003269121,-0.0550701674074,-9.81987195015,0.0,0.0,0.0,0.0,0.0,0.0,0.0,0.0,0.0
1592874837575276818,1916,1592874837574985376,imu_link,0.00117542942296,0.00383975894727,0.883024715805,0.469309307274,0.0,0.0,0.0,0.0,0.0,0.0,0.0,0.0,0.0,0.00552897568841,-0.00599793702629,0.00726313202863,0.0,0.0,0.0,0.0,0.0,0.0,0.0,0.0,0.0,0.0192854424939,-0.0623730917461,-9.81511483192,0.0,0.0,0.0,0.0,0.0,0.0,0.0,0.0,0.0
1592874837585263394,1917,1592874837585040492,imu_link,0.00117281639981,0.00385994817447,0.883003842161,0.469348420718,0.0,0.0,0.0,0.0,0.0,0.0,0.0,0.0,0.0,0.00433563167936,0.00270038472507,-0.00362031962036,0.0,0.0,0.0,0.0,0.0,0.0,0.0,0.0,0.0,0.0120658861008,-0.067263166979,-9.81033785343,0.0,0.0,0.0,0.0,0.0,0.0,0.0,0.0,0.0
1592874837595351543,1918,1592874837594977295,imu_link,0.00114981548846,0.0038796427358,0.882991772296,0.469371022064,0.0,0.0,0.0,0.0,0.0,0.0,0.0,0.0,0.0,0.00188271235396,0.0063163585035,8.71805215984e-05,0.0,0.0,0.0,0.0,0.0,0.0,0.0,0.0,0.0,0.0120721620275,-0.0720560765825,-9.81283323765,0.0,0.0,0.0,0.0,0.0,0.0,0.0,0.0,0.0
1592874837605174841,1919,1592874837604908667,imu_link,0.00120044266953,0.00387258865357,0.882973294667,0.469405712469,0.0,0.0,0.0,0.0,0.0,0.0,0.0,0.0,0.0,0.00433247151627,-0.00953216294315,-0.00256199995803,0.0,0.0,0.0,0.0,0.0,0.0,0.0,0.0,0.0,0.014474496874,-0.0696434647776,-9.81279468536,0.0,0.0,0.0,0.0,0.0,0.0,0.0,0.0,0.0
1592874837615078200,1920,1592874837614911174,imu_link,0.00119222439333,0.00386115136552,0.882958310678,0.4694340121,0.0,0.0,0.0,0.0,0.0,0.0,0.0,0.0,0.0,-0.00177932292774,0.000224698330884,-0.00122556877811,0.0,0.0,0.0,0.0,0.0,0.0,0.0,0.0,0.0,0.0168580096448,-0.0673282787204,-9.8054662466,0.0,0.0,0.0,0.0,0.0,0.0,0.0,0.0,0.0
1592874837625133015,1921,1592874837624903611,imu_link,0.00125078187367,0.00387043501538,0.882965730673,0.469419826739,0.0,0.0,0.0,0.0,0.0,0.0,0.0,0.0,0.0,0.00796925826254,-0.00967921624745,0.00844197507365,0.0,0.0,0.0,0.0,0.0,0.0,0.0,0.0,0.0,0.0168517394224,-0.0697734190151,-9.80306899548,0.0,0.0,0.0,0.0,0.0,0.0,0.0,0.0,0.0
1592874837635207769,1922,1592874837634920285,imu_link,0.00130309415095,0.00388392604984,0.88297894026,0.46939472528,0.0,0.0,0.0,0.0,0.0,0.0,0.0,0.0,0.0,0.00796294781917,-0.0084902417471,0.0109015125104,0.0,0.0,0.0,0.0,0.0,0.0,0.0,0.0,0.0,0.0192666204181,-0.0721212795936,-9.80795462132,0.0,0.0,0.0,0.0,0.0,0.0,0.0,0.0,0.0
1592874837645361291,1923,1592874837645178936,imu_link,0.00130847150017,0.00390270463504,0.882992418871,0.469369199048,0.0,0.0,0.0,0.0,0.0,0.0,0.0,0.0,0.0,0.00429776407771,6.12400462463e-05,0.0110063068581,0.0,0.0,0.0,0.0,0.0,0.0,0.0,0.0,0.0,0.0216815093998,-0.0744690945372,-9.81284024715,0.0,0.0,0.0,0.0,0.0,0.0,0.0,0.0,0.0
1592874837655243620,1924,1592874837654950075,imu_link,0.00132496889458,0.00391397484525,0.883005779102,0.469343924357,0.0,0.0,0.0,0.0,0.0,0.0,0.0,0.0,0.0,0.00429776069675,-0.00238200329931,0.0109736352813,0.0,0.0,0.0,0.0,0.0,0.0,0.0,0.0,0.0,0.0192917172797,-0.0719913983718,-9.8176733017,0.0,0.0,0.0,0.0,0.0,0.0,0.0,0.0,0.0
1592874837665281935,1925,1592874837665148753,imu_link,0.00132316242759,0.00392664619691,0.883024968262,0.469307720069,0.0,0.0,0.0,0.0,0.0,0.0,0.0,0.0,0.0,0.00306972095249,0.00125025815374,0.013462671388,0.0,0.0,0.0,0.0,0.0,0.0,0.0,0.0,0.0,0.0168705557939,-0.0696760206483,-9.8103577137,0.0,0.0,0.0,0.0,0.0,0.0,0.0,0.0,0.0
1592874837675281547,1926,1592874837675002729,imu_link,0.00130435599389,0.00394834660057,0.883044231941,0.469271343309,0.0,0.0,0.0,0.0,0.0,0.0,0.0,0.0,0.0,0.0030697167913,0.00491512954593,0.0135116277786,0.0,0.0,0.0,0.0,0.0,0.0,0.0,0.0,0.0,0.0192540776916,-0.0697735102847,-9.80306315422,0.0,0.0,0.0,0.0,0.0,0.0,0.0,0.0,0.0
1592874837685139189,1927,1592874837684921016,imu_link,0.00129370706234,0.00395740573516,0.883051902447,0.469256862334,0.0,0.0,0.0,0.0,0.0,0.0,0.0,0.0,0.0,0.00186060109509,0.00253722709854,0.00858933214476,0.0,0.0,0.0,0.0,0.0,0.0,0.0,0.0,0.0,0.0168642832898,-0.0672957958654,-9.80789620876,0.0,0.0,0.0,0.0,0.0,0.0,0.0,0.0,0.0
1592874837695217148,1928,1592874837694977084,imu_link,0.00125061516123,0.00397409067562,0.883067864548,0.469226799286,0.0,0.0,0.0,0.0,0.0,0.0,0.0,0.0,0.0,0.000632558945148,0.00861273207189,0.0111110200626,0.0,0.0,0.0,0.0,0.0,0.0,0.0,0.0,0.0,0.0217003269121,-0.0623082492501,-9.81996774673,0.0,0.0,0.0,0.0,0.0,0.0,0.0,0.0,0.0
1592874837705315918,1929,1592874837705158279,imu_link,0.0012238659607,0.00394922556124,0.883072094093,0.469219119819,0.0,0.0,0.0,0.0,0.0,0.0,0.0,0.0,0.0,-0.00546345880526,0.00134851592345,0.00611081240336,0.0,0.0,0.0,0.0,0.0,0.0,0.0,0.0,0.0,0.0265238232445,-0.0646236862987,-9.82727866173,0.0,0.0,0.0,0.0,0.0,0.0,0.0,0.0,0.0
1592874837715379620,1930,1592874837714981717,imu_link,0.00116002013645,0.0039569061775,0.88305087839,0.469259143141,0.0,0.0,0.0,0.0,0.0,0.0,0.0,0.0,0.0,-0.00299163207657,0.0112683379803,-0.00474684845524,0.0,0.0,0.0,0.0,0.0,0.0,0.0,0.0,0.0,0.0241214838345,-0.062210905645,-9.82725179195,0.0,0.0,0.0,0.0,0.0,0.0,0.0,0.0,0.0
1592874837725307575,1931,1592874837725123527,imu_link,0.00112601482241,0.0039683455261,0.883023843553,0.469309999938,0.0,0.0,0.0,0.0,0.0,0.0,0.0,0.0,0.0,0.000679851055097,0.00641438103599,-0.00724593955543,0.0,0.0,0.0,0.0,0.0,0.0,0.0,0.0,0.0,0.0240963892546,-0.0599280883558,-9.81750040054,0.0,0.0,0.0,0.0,0.0,0.0,0.0,0.0,0.0
1592874837735167632,1932,1592874837734971661,imu_link,0.00114740402917,0.00399165652553,0.88298211877,0.469388248761,0.0,0.0,0.0,0.0,0.0,0.0,0.0,0.0,0.0,0.00802597683134,-0.00205560170158,-0.0134493992752,0.0,0.0,0.0,0.0,0.0,0.0,0.0,0.0,0.0,0.0216689621098,-0.0600578965619,-9.80778756142,0.0,0.0,0.0,0.0,0.0,0.0,0.0,0.0,0.0
1592874837745056094,1933,1592874837744909066,imu_link,0.00114059594786,0.00399649870858,0.882963590514,0.469423076622,0.0,0.0,0.0,0.0,0.0,0.0,0.0,0.0,0.0,0.00189210051687,0.00147887453681,-0.00364327013907,0.0,0.0,0.0,0.0,0.0,0.0,0.0,0.0,0.0,0.0192791699897,-0.0624055609107,-9.81268486977,0.0,0.0,0.0,0.0,0.0,0.0,0.0,0.0,0.0
1592874837755360512,1934,1592874837755125988,imu_link,0.00114440308031,0.00398024188367,0.882976483861,0.469398952881,0.0,0.0,0.0,0.0,0.0,0.0,0.0,0.0,0.0,-0.00180777947994,-0.00236544514739,0.00973606433326,0.0,0.0,0.0,0.0,0.0,0.0,0.0,0.0,0.0,0.0192791699897,-0.0720563321374,-9.81281454563,0.0,0.0,0.0,0.0,0.0,0.0,0.0,0.0,0.0
1592874837765374410,1935,1592874837764952331,imu_link,0.00117455541963,0.00398579619066,0.882978096805,0.469395797181,0.0,0.0,0.0,0.0,0.0,0.0,0.0,0.0,0.0,0.00431031682499,-0.00598153569919,0.00603798223025,0.0,0.0,0.0,0.0,0.0,0.0,0.0,0.0,0.0,0.0289010612294,-0.0744043980725,-9.81768147945,0.0,0.0,0.0,0.0,0.0,0.0,0.0,0.0,0.0
1592874837775183952,1936,1592874837774935822,imu_link,0.00112793809375,0.00399642358725,0.882983149061,0.469386317258,0.0,0.0,0.0,0.0,0.0,0.0,0.0,0.0,0.0,-0.0018014768388,0.00744020103069,0.00742338930631,0.0,0.0,0.0,0.0,0.0,0.0,0.0,0.0,0.0,0.0361143474001,-0.0719595133327,-9.82006003857,0.0,0.0,0.0,0.0,0.0,0.0,0.0,0.0,0.0
1592874837785400744,1937,1592874837784924633,imu_link,0.00112459031319,0.00398981048408,0.882982053983,0.469388441541,0.0,0.0,0.0,0.0,0.0,0.0,0.0,0.0,0.0,-0.000573444636699,-0.00230016415165,0.00485268518083,0.0,0.0,0.0,0.0,0.0,0.0,0.0,0.0,0.0,0.040919019375,-0.0695469745435,-9.82001564503,0.0,0.0,0.0,0.0,0.0,0.0,0.0,0.0,0.0
1592874837795352434,1938,1592874837794979448,imu_link,0.00118992604018,0.00398917832046,0.882977681534,0.4693965109,0.0,0.0,0.0,0.0,0.0,0.0,0.0,0.0,0.0,0.00676006922536,-0.0132786812881,0.00350303988463,0.0,0.0,0.0,0.0,0.0,0.0,0.0,0.0,0.0,0.0336994652636,-0.0720243558288,-9.81520712376,0.0,0.0,0.0,0.0,0.0,0.0,0.0,0.0,0.0
1592874837805716875,1939,1592874837804956887,imu_link,0.00120472092261,0.00399051506916,0.882967993468,0.469414685484,0.0,0.0,0.0,0.0,0.0,0.0,0.0,0.0,0.0,0.00310118994558,-0.00347291807654,0.00118092598027,0.0,0.0,0.0,0.0,0.0,0.0,0.0,0.0,0.0,0.0264987286646,-0.0647535675205,-9.8175588131,0.0,0.0,0.0,0.0,0.0,0.0,0.0,0.0,0.0
1592874837815393436,1940,1592874837815150596,imu_link,0.00119150989098,0.00396836544464,0.882952871642,0.469443349979,0.0,0.0,0.0,0.0,0.0,0.0,0.0,0.0,0.0,-0.00300114689568,0.000224804961357,-0.00122912282377,0.0,0.0,0.0,0.0,0.0,0.0,0.0,0.0,0.0,0.0168893778697,-0.0575151434168,-9.81748638153,0.0,0.0,0.0,0.0,0.0,0.0,0.0,0.0,0.0
1592874837825431279,1941,1592874837825243925,imu_link,0.00118020197405,0.00397148340901,0.882961696873,0.469426752857,0.0,0.0,0.0,0.0,0.0,0.0,0.0,0.0,0.0,0.00186367335307,0.00255360319844,0.00736744835973,0.0,0.0,0.0,0.0,0.0,0.0,0.0,0.0,0.0,0.0144807693781,-0.0551348456182,-9.81503071785,0.0,0.0,0.0,0.0,0.0,0.0,0.0,0.0,0.0
1592874837835529407,1942,1592874837834991489,imu_link,0.00116951882598,0.00396060890946,0.882964837632,0.469420963857,0.0,0.0,0.0,0.0,0.0,0.0,0.0,0.0,0.0,-0.000573482347476,0.00136471257206,0.00490156771028,0.0,0.0,0.0,0.0,0.0,0.0,0.0,0.0,0.0,0.0120721620275,-0.0551672235131,-9.8126077652,0.0,0.0,0.0,0.0,0.0,0.0,0.0,0.0,0.0
1592874837845195687,1943,1592874837844950193,imu_link,0.00117746554655,0.00396331855896,0.88294488757,0.469458444587,0.0,0.0,0.0,0.0,0.0,0.0,0.0,0.0,0.0,0.00311692444212,-0.000948049124662,-0.00489457483189,0.0,0.0,0.0,0.0,0.0,0.0,0.0,0.0,0.0,0.0144682209473,-0.0600251718424,-9.81023621559,0.0,0.0,0.0,0.0,0.0,0.0,0.0,0.0,0.0
1592874837855407500,1944,1592874837854968539,imu_link,0.00114393132681,0.00396187315302,0.882939690103,0.469468314824,0.0,0.0,0.0,0.0,0.0,0.0,0.0,0.0,0.0,-0.00178576171779,0.00630021985146,0.00129883444568,0.0,0.0,0.0,0.0,0.0,0.0,0.0,0.0,0.0,0.0120533399517,-0.0625027356669,-9.80541484356,0.0,0.0,0.0,0.0,0.0,0.0,0.0,0.0,0.0
1592874837865404907,1945,1592874837864994390,imu_link,0.0011159793426,0.00394530201404,0.882925751485,0.469494735376,0.0,0.0,0.0,0.0,0.0,0.0,0.0,0.0,0.0,-0.00421975166364,0.00390603337049,-0.00240499126872,0.0,0.0,0.0,0.0,0.0,0.0,0.0,0.0,0.0,0.0120470697293,-0.0649478805251,-9.80301759243,0.0,0.0,0.0,0.0,0.0,0.0,0.0,0.0,0.0
1592874837875505640,1946,1592874837875021804,imu_link,0.00111171603532,0.00394799665239,0.882931769582,0.469483405109,0.0,0.0,0.0,0.0,0.0,0.0,0.0,0.0,0.0,0.00186679073394,0.00134829759106,0.00612943216444,0.0,0.0,0.0,0.0,0.0,0.0,0.0,0.0,0.0,0.0144556747982,-0.060090123862,-9.80537629128,0.0,0.0,0.0,0.0,0.0,0.0,0.0,0.0,0.0
1592874837885360367,1947,1592874837885163634,imu_link,0.00108068329528,0.00395112128646,0.882946524104,0.469455702209,0.0,0.0,0.0,0.0,0.0,0.0,0.0,0.0,0.0,-0.000586133467862,0.00618589586041,0.00985326526647,0.0,0.0,0.0,0.0,0.0,0.0,0.0,0.0,0.0,0.0144682209473,-0.0600251718424,-9.81023621559,0.0,0.0,0.0,0.0,0.0,0.0,0.0,0.0,0.0
1592874837895251182,1948,1592874837894953038,imu_link,0.0010726685807,0.00396825088102,0.882961034891,0.469428283374,0.0,0.0,0.0,0.0,0.0,0.0,0.0,0.0,0.0,0.00430076663577,0.0025208616617,0.00981689023136,0.0,0.0,0.0,0.0,0.0,0.0,0.0,0.0,0.0,0.0241026617587,-0.0574829298072,-9.81989765167,0.0,0.0,0.0,0.0,0.0,0.0,0.0,0.0,0.0
1592874837905397120,1949,1592874837905141326,imu_link,0.00106208532915,0.00400040307802,0.882978346131,0.469395471873,0.0,0.0,0.0,0.0,0.0,0.0,0.0,0.0,0.0,0.00674105883265,0.00372607910388,0.0110611232433,0.0,0.0,0.0,0.0,0.0,0.0,0.0,0.0,0.0,0.0313096754253,-0.0574831853621,-9.81987895966,0.0,0.0,0.0,0.0,0.0,0.0,0.0,0.0,0.0
1592874837915607370,1950,1592874837914988178,imu_link,0.00108641450901,0.004008239291,0.882986665339,0.469379699769,0.0,0.0,0.0,0.0,0.0,0.0,0.0,0.0,0.0,0.0055287863543,-0.00477624881716,0.00727882543342,0.0,0.0,0.0,0.0,0.0,0.0,0.0,0.0,0.0,0.0313096754253,-0.0598958747461,-9.81991050243,0.0,0.0,0.0,0.0,0.0,0.0,0.0,0.0,0.0
1592874837925350235,1951,1592874837925144616,imu_link,0.0010896877521,0.00399805375562,0.882992247402,0.469369278047,0.0,0.0,0.0,0.0,0.0,0.0,0.0,0.0,0.0,-0.000576699141759,-0.00231647159192,0.0060740743045,0.0,0.0,0.0,0.0,0.0,0.0,0.0,0.0,0.0,0.0264924538787,-0.0696114154533,-9.81519310474,0.0,0.0,0.0,0.0,0.0,0.0,0.0,0.0,0.0
1592874837935352312,1952,1592874837934983043,imu_link,0.00108169041155,0.0039950782082,0.883003788796,0.469347609207,0.0,0.0,0.0,0.0,0.0,0.0,0.0,0.0,0.0,-0.000583010235318,0.00131574499831,0.00856627135454,0.0,0.0,0.0,0.0,0.0,0.0,0.0,0.0,0.0,0.0168893778697,-0.0719913071021,-9.8176803112,0.0,0.0,0.0,0.0,0.0,0.0,0.0,0.0,0.0
1592874837945503670,1953,1592874837944929193,imu_link,0.00108035840117,0.00398162833902,0.88301516448,0.469326324383,0.0,0.0,0.0,0.0,0.0,0.0,0.0,0.0,0.0,-0.00180474064151,9.41609001729e-05,0.00854677722358,0.0,0.0,0.0,0.0,0.0,0.0,0.0,0.0,0.0,0.00728630357189,-0.0719585139304,-9.82013480663,0.0,0.0,0.0,0.0,0.0,0.0,0.0,0.0,0.0
1592874837955311328,1954,1592874837955006220,imu_link,0.00109506183719,0.00399017490981,0.883029285914,0.469299647945,0.0,0.0,0.0,0.0,0.0,0.0,0.0,0.0,0.0,0.004300735947,-0.00114399334581,0.00976782356929,0.0,0.0,0.0,0.0,0.0,0.0,0.0,0.0,0.0,0.0120909806807,-0.0647205963731,-9.82002499104,0.0,0.0,0.0,0.0,0.0,0.0,0.0,0.0,0.0
1592874837965447307,1955,1592874837964987206,imu_link,0.00110082746066,0.00397900785309,0.883040965439,0.469277752543,0.0,0.0,0.0,0.0,0.0,0.0,0.0,0.0,0.0,0.000635545703692,-0.00236549508166,0.00974201691437,0.0,0.0,0.0,0.0,0.0,0.0,0.0,0.0,0.0,0.0216877819039,-0.0575477905571,-9.81504356861,0.0,0.0,0.0,0.0,0.0,0.0,0.0,0.0,0.0
1592874837975479630,1956,1592874837974919110,imu_link,0.00110077204815,0.00396971536392,0.883055506746,0.469250467945,0.0,0.0,0.0,0.0,0.0,0.0,0.0,0.0,0.0,0.00063238248472,-0.00116018856402,0.0109799384426,0.0,0.0,0.0,0.0,0.0,0.0,0.0,0.0,0.0,0.0216815093998,-0.0551675657742,-9.81258323193,0.0,0.0,0.0,0.0,0.0,0.0,0.0,0.0,0.0
1592874837985361268,1957,1592874837984955460,imu_link,0.00109877360814,0.00396273272195,0.883035792781,0.469287628341,0.0,0.0,0.0,0.0,0.0,0.0,0.0,0.0,0.0,-0.000551498460009,0.000257370996697,-0.00366631428453,0.0,0.0,0.0,0.0,0.0,0.0,0.0,0.0,0.0,0.0120345190167,-0.0698382067494,-9.79822192192,0.0,0.0,0.0,0.0,0.0,0.0,0.0,0.0,0.0
1592874837995260128,1958,1592874837994980219,imu_link,0.00109839239456,0.00396288331834,0.88300473222,0.469346068447,0.0,0.0,0.0,0.0,0.0,0.0,0.0,0.0,0.0,-0.000538879523821,0.00154428934079,-0.00853647671995,0.0,0.0,0.0,0.0,0.0,0.0,0.0,0.0,0.0,0.00240007763496,-0.0844439413399,-9.78872053623,0.0,0.0,0.0,0.0,0.0,0.0,0.0,0.0,0.0
1592874838005143961,1959,1592874838004928013,imu_link,0.00107806151232,0.00396387721823,0.882979716745,0.469393167055,0.0,0.0,0.0,0.0,0.0,0.0,0.0,0.0,0.0,-0.00298863732074,0.00517658486358,-0.00605059219387,0.0,0.0,0.0,0.0,0.0,0.0,0.0,0.0,0.0,0.00239380541607,-0.0917145060375,-9.78638812304,0.0,0.0,0.0,0.0,0.0,0.0,0.0,0.0,0.0
1592874838015282926,1960,1592874838014985954,imu_link,0.00106087476796,0.00398921561368,0.882974648918,0.46940252457,0.0,0.0,0.0,0.0,0.0,0.0,0.0,0.0,0.0,0.00187619684198,0.00628375766697,0.002529649313,0.0,0.0,0.0,0.0,0.0,0.0,0.0,0.0,0.0,0.0096384600969,-0.0891072070226,-9.80091707706,0.0,0.0,0.0,0.0,0.0,0.0,0.0,0.0,0.0
1592874838025329486,1961,1592874838025154194,imu_link,0.0010974460869,0.00401343847929,0.882974895193,0.46940177075,0.0,0.0,0.0,0.0,0.0,0.0,0.0,0.0,0.0,0.00797852315022,-0.00474369895519,0.00484170692351,0.0,0.0,0.0,0.0,0.0,0.0,0.0,0.0,0.0,0.0241089388262,-0.0767519939691,-9.82258579731,0.0,0.0,0.0,0.0,0.0,0.0,0.0,0.0,0.0
1592874838035276638,1962,1592874838034946383,imu_link,0.00110238206967,0.00403652003837,0.882955252442,0.469438508694,0.0,0.0,0.0,0.0,0.0,0.0,0.0,0.0,0.0,0.00555714329804,0.000257151201385,-0.00365063908494,0.0,0.0,0.0,0.0,0.0,0.0,0.0,0.0,0.0,0.0289261558093,-0.0694491380826,-9.82733590603,0.0,0.0,0.0,0.0,0.0,0.0,0.0,0.0,0.0
1592874838045170188,1963,1592874838044967925,imu_link,0.00110601292004,0.00403563259119,0.882941318377,0.469464715083,0.0,0.0,0.0,0.0,0.0,0.0,0.0,0.0,0.0,0.00188564664251,-0.00221861238611,-0.00124953618742,0.0,0.0,0.0,0.0,0.0,0.0,0.0,0.0,0.0,0.0337245598435,-0.0622437033802,-9.82479729652,0.0,0.0,0.0,0.0,0.0,0.0,0.0,0.0,0.0
1592874838055325434,1964,1592874838055008294,imu_link,0.00114006765634,0.00404336643075,0.882952987988,0.469442618896,0.0,0.0,0.0,0.0,0.0,0.0,0.0,0.0,0.0,0.00674415891858,-0.00725218446007,0.00969231255006,0.0,0.0,0.0,0.0,0.0,0.0,0.0,0.0,0.0,0.038516679965,-0.0574834226631,-9.81986026764,0.0,0.0,0.0,0.0,0.0,0.0,0.0,0.0,0.0
1592874838065201552,1965,1592874838065056958,imu_link,0.0011255641871,0.00406293949853,0.882970700588,0.469409168562,0.0,0.0,0.0,0.0,0.0,0.0,0.0,0.0,0.0,0.00429438701263,0.00248823273713,0.0122598266039,0.0,0.0,0.0,0.0,0.0,0.0,0.0,0.0,0.0,0.038516679965,-0.0574834226631,-9.81986026764,0.0,0.0,0.0,0.0,0.0,0.0,0.0,0.0,0.0
1592874838075342470,1966,1592874838075026502,imu_link,0.00114470637994,0.00405182520507,0.882970858062,0.469408922127,0.0,0.0,0.0,0.0,0.0,0.0,0.0,0.0,0.0,0.000648126929104,-0.00596503502369,0.00480636386331,0.0,0.0,0.0,0.0,0.0,0.0,0.0,0.0,0.0,0.0337120079901,-0.0719594220631,-9.82006704807,0.0,0.0,0.0,0.0,0.0,0.0,0.0,0.0,0.0
1592874838085317935,1967,1592874838084888483,imu_link,0.00118450156761,0.00407349457475,0.882959583325,0.469429843334,0.0,0.0,0.0,0.0,0.0,0.0,0.0,0.0,0.0,0.00799110502582,-0.00589998263328,-6.12009294427e-05,0.0,0.0,0.0,0.0,0.0,0.0,0.0,0.0,0.0,0.0264924538787,-0.0768494972959,-9.81529006958,0.0,0.0,0.0,0.0,0.0,0.0,0.0,0.0,0.0
1592874838095126615,1968,1592874838094918181,imu_link,0.00117472200962,0.00408671451739,0.882960201625,0.469428590031,0.0,0.0,0.0,0.0,0.0,0.0,0.0,0.0,0.0,0.00186985024828,0.00258628049683,0.00492375777167,0.0,0.0,0.0,0.0,0.0,0.0,0.0,0.0,0.0,0.0216940566897,-0.0768168684095,-9.8177328825,0.0,0.0,0.0,0.0,0.0,0.0,0.0,0.0,0.0
1592874838105333047,1969,1592874838104932790,imu_link,0.00118362242037,0.00410352260247,0.88296631199,0.46941692772,0.0,0.0,0.0,0.0,0.0,0.0,0.0,0.0,0.0,0.00430699437551,0.000110299787904,0.00734062793509,0.0,0.0,0.0,0.0,0.0,0.0,0.0,0.0,0.0,0.0168956503738,-0.0767842212692,-9.82017335892,0.0,0.0,0.0,0.0,0.0,0.0,0.0,0.0,0.0
1592874838115265552,1970,1592874838114973950,imu_link,0.00116116780722,0.00412606067327,0.882966939785,0.469415605363,0.0,0.0,0.0,0.0,0.0,0.0,0.0,0.0,0.0,0.00309157031652,0.00625110585586,0.00497584961827,0.0,0.0,0.0,0.0,0.0,0.0,0.0,0.0,0.0,0.0168893778697,-0.0695786040276,-9.81764760017,0.0,0.0,0.0,0.0,0.0,0.0,0.0,0.0,0.0
1592874838125339404,1971,1592874838125186484,imu_link,0.00114053576085,0.00409409497349,0.882941769901,0.469463277081,0.0,0.0,0.0,0.0,0.0,0.0,0.0,0.0,0.0,-0.0066538564323,0.000290259264124,-0.00612558306446,0.0,0.0,0.0,0.0,0.0,0.0,0.0,0.0,0.0,0.0217128787655,-0.0718940730207,-9.82495734692,0.0,0.0,0.0,0.0,0.0,0.0,0.0,0.0,0.0
1592874838135137123,1972,1592874838134892630,imu_link,0.00117264771862,0.00408678531407,0.88291053173,0.469522008049,0.0,0.0,0.0,0.0,0.0,0.0,0.0,0.0,0.0,0.00312625668905,-0.00700715387622,-0.00864155870985,0.0,0.0,0.0,0.0,0.0,0.0,0.0,0.0,0.0,0.0241089388262,-0.0671012181789,-9.8224572897,0.0,0.0,0.0,0.0,0.0,0.0,0.0,0.0,0.0
1592874838145380295,1973,1592874838145181028,imu_link,0.00115915207671,0.00409019278258,0.882899785635,0.469542218778,0.0,0.0,0.0,0.0,0.0,0.0,0.0,0.0,0.0,0.0018824399261,0.00142996756037,2.08687273746e-05,0.0,0.0,0.0,0.0,0.0,0.0,0.0,0.0,0.0,0.0313284975011,-0.0549730793573,-9.82713730335,0.0,0.0,0.0,0.0,0.0,0.0,0.0,0.0,0.0
1592874838155245281,1974,1592874838154989727,imu_link,0.00114223577698,0.00406948866159,0.882911913985,0.469519633991,0.0,0.0,0.0,0.0,0.0,0.0,0.0,0.0,0.0,-0.00180798909985,7.78730061091e-05,0.00976799937953,0.0,0.0,0.0,0.0,0.0,0.0,0.0,0.0,0.0,0.0289387030993,-0.0452572967857,-9.83187222481,0.0,0.0,0.0,0.0,0.0,0.0,0.0,0.0,0.0
1592874838165260181,1975,1592874838164982225,imu_link,0.0011395152636,0.00408254223874,0.882931104656,0.469483438244,0.0,0.0,0.0,0.0,0.0,0.0,0.0,0.0,0.0,0.00551289737361,0.00125026842668,0.013468077813,0.0,0.0,0.0,0.0,0.0,0.0,0.0,0.0,0.0,0.0241340311244,-0.0452571370639,-9.83188507557,0.0,0.0,0.0,0.0,0.0,0.0,0.0,0.0,0.0
1592874838175421398,1976,1592874838174998789,imu_link,0.00110382514467,0.0041019558983,0.882936179544,0.469473810112,0.0,0.0,0.0,0.0,0.0,0.0,0.0,0.0,0.0,0.0030852016165,0.00866171134899,0.00745161465243,0.0,0.0,0.0,0.0,0.0,0.0,0.0,0.0,0.0,0.0144995914539,-0.0502120547928,-9.82225635052,0.0,0.0,0.0,0.0,0.0,0.0,0.0,0.0,0.0
1592874838185119579,1977,1592874838184941352,imu_link,0.00114463226166,0.00411893673751,0.882926395835,0.469491963419,0.0,0.0,0.0,0.0,0.0,0.0,0.0,0.0,0.0,0.00920959900212,-0.00469471603705,0.00117969803936,0.0,0.0,0.0,0.0,0.0,0.0,0.0,0.0,0.0,0.00968237447087,-0.0575149061158,-9.81750507355,0.0,0.0,0.0,0.0,0.0,0.0,0.0,0.0,0.0
1592874838195494190,1978,1592874838195031404,imu_link,0.00115960680874,0.00412581416927,0.882928213799,0.469488447405,0.0,0.0,0.0,0.0,0.0,0.0,0.0,0.0,0.0,0.00431006637341,-0.0010949842902,0.00610250406904,0.0,0.0,0.0,0.0,0.0,0.0,0.0,0.0,0.0,0.00966982832178,-0.0648179217242,-9.81274211407,0.0,0.0,0.0,0.0,0.0,0.0,0.0,0.0,0.0
1592874838205109914,1979,1592874838204921297,imu_link,0.00120841963441,0.00412822918434,0.882946918167,0.46945312561,0.0,0.0,0.0,0.0,0.0,0.0,0.0,0.0,0.0,0.00673458922379,-0.00730113929019,0.0133568679519,0.0,0.0,0.0,0.0,0.0,0.0,0.0,0.0,0.0,0.00725493705831,-0.0648827824742,-9.80788919926,0.0,0.0,0.0,0.0,0.0,0.0,0.0,0.0,0.0
1592874838215181632,1980,1592874838214979149,imu_link,0.00122758974741,0.00410516238418,0.882951447877,0.469444758579,0.0,0.0,0.0,0.0,0.0,0.0,0.0,0.0,0.0,-0.000580010473058,-0.00477601631071,0.00726248756445,0.0,0.0,0.0,0.0,0.0,0.0,0.0,0.0,0.0,0.00964473602362,-0.064947802946,-9.80302343369,0.0,0.0,0.0,0.0,0.0,0.0,0.0,0.0,0.0
1592874838225059573,1981,1592874838224892336,imu_link,0.00121509900579,0.00408281709099,0.882950144687,0.469447437032,0.0,0.0,0.0,0.0,0.0,0.0,0.0,0.0,0.0,-0.00301401121199,0.000159528110551,0.00365661325221,0.0,0.0,0.0,0.0,0.0,0.0,0.0,0.0,0.0,0.0168580096448,-0.0600901968777,-9.80536928177,0.0,0.0,0.0,0.0,0.0,0.0,0.0,0.0,0.0
1592874838235376124,1982,1592874838235151759,imu_link,0.0012374183897,0.00406970131084,0.882939935455,0.469466693925,0.0,0.0,0.0,0.0,0.0,0.0,0.0,0.0,0.0,0.00188235150083,-0.00589976833204,-7.72661308038e-05,0.0,0.0,0.0,0.0,0.0,0.0,0.0,0.0,0.0,0.0240838442463,-0.0599930221215,-9.81264164448,0.0,0.0,0.0,0.0,0.0,0.0,0.0,0.0,0.0
1592874838245357030,1983,1592874838245011346,imu_link,0.00124419703876,0.0040743862555,0.882927037523,0.469490892095,0.0,0.0,0.0,0.0,0.0,0.0,0.0,0.0,0.0,0.00310722575046,-0.0022186175876,-0.00124677146733,0.0,0.0,0.0,0.0,0.0,0.0,0.0,0.0,0.0,0.0313034006394,-0.0647537318058,-9.81754713058,0.0,0.0,0.0,0.0,0.0,0.0,0.0,0.0,0.0
1592874838255166250,1984,1592874838254967564,imu_link,0.00127120940963,0.00405316944048,0.882908239982,0.469526352418,0.0,0.0,0.0,0.0,0.0,0.0,0.0,0.0,0.0,0.000670071675385,-0.00829398238089,-0.00377795768954,0.0,0.0,0.0,0.0,0.0,0.0,0.0,0.0,0.0,0.0313222227152,-0.0622436303645,-9.82480430603,0.0,0.0,0.0,0.0,0.0,0.0,0.0,0.0,0.0
1592874838265172895,1985,1592874838264965332,imu_link,0.00129518349128,0.00403928987642,0.882863859752,0.4696098506,0.0,0.0,0.0,0.0,0.0,0.0,0.0,0.0,0.0,0.00192017736055,-0.00692546817241,-0.0147530509475,0.0,0.0,0.0,0.0,0.0,0.0,0.0,0.0,0.0,0.0289136108011,-0.0598633006215,-9.8223474741,0.0,0.0,0.0,0.0,0.0,0.0,0.0,0.0,0.0
1592874838275400247,1986,1592874838274975142,imu_link,0.00128898031585,0.00403196239161,0.88283994084,0.469654895287,0.0,0.0,0.0,0.0,0.0,0.0,0.0,0.0,0.0,0.000676360467571,-0.000931584274403,-0.00612327256418,0.0,0.0,0.0,0.0,0.0,0.0,0.0,0.0,0.0,0.0289010612294,-0.055102873873,-9.81742329597,0.0,0.0,0.0,0.0,0.0,0.0,0.0,0.0,0.0
1592874838285323934,1987,1592874838285177758,imu_link,0.00131387949783,0.00401362003899,0.882847324489,0.469641103628,0.0,0.0,0.0,0.0,0.0,0.0,0.0,0.0,0.0,0.00186338089949,-0.00721931522684,0.00723602604239,0.0,0.0,0.0,0.0,0.0,0.0,0.0,0.0,0.0,0.0264861813746,-0.0527550406754,-9.81253767014,0.0,0.0,0.0,0.0,0.0,0.0,0.0,0.0,0.0
1592874838295270485,1988,1592874838294953075,imu_link,0.00130272977578,0.0040240980491,0.882846425688,0.469642734619,0.0,0.0,0.0,0.0,0.0,0.0,0.0,0.0,0.0,0.00309456117123,0.00138097631985,0.0036885906906,0.0,0.0,0.0,0.0,0.0,0.0,0.0,0.0,0.0,0.0312845785636,-0.0576130665839,-9.81015911102,0.0,0.0,0.0,0.0,0.0,0.0,0.0,0.0,0.0
1592874838305286417,1989,1592874838304973976,imu_link,0.00127508995893,0.00402277741538,0.882857051584,0.469622846415,0.0,0.0,0.0,0.0,0.0,0.0,0.0,0.0,0.0,-0.000583245862654,0.00253743385763,0.00858190650269,0.0,0.0,0.0,0.0,0.0,0.0,0.0,0.0,0.0,0.0384915899485,-0.0576133038849,-9.81014158726,0.0,0.0,0.0,0.0,0.0,0.0,0.0,0.0,0.0
1592874838315266541,1990,1592874838314972205,imu_link,0.00130052833329,0.00403325505799,0.882864297393,0.469609064934,0.0,0.0,0.0,0.0,0.0,0.0,0.0,0.0,0.0,0.0067502602622,-0.00599783507716,0.00726491717878,0.0,0.0,0.0,0.0,0.0,0.0,0.0,0.0,0.0,0.0408876545727,-0.055233174935,-9.80767424107,0.0,0.0,0.0,0.0,0.0,0.0,0.0,0.0,0.0
1592874838325138761,1991,1592874838324919487,imu_link,0.00128151598506,0.00404397380148,0.882860579683,0.469616014244,0.0,0.0,0.0,0.0,0.0,0.0,0.0,0.0,0.0,0.00309768258326,0.00261895207358,0.00248324763251,0.0,0.0,0.0,0.0,0.0,0.0,0.0,0.0,0.0,0.0336680981796,-0.0504724743776,-9.80276875496,0.0,0.0,0.0,0.0,0.0,0.0,0.0,0.0,0.0
1592874838335313033,1992,1592874838335130798,imu_link,0.00124862589701,0.00403586227439,0.882859728857,0.469617772141,0.0,0.0,0.0,0.0,0.0,0.0,0.0,0.0,0.0,-0.00179239179251,0.00382442204793,0.00370855945719,0.0,0.0,0.0,0.0,0.0,0.0,0.0,0.0,0.0,0.0288696941454,-0.0528525485657,-9.80524194241,0.0,0.0,0.0,0.0,0.0,0.0,0.0,0.0,0.0
1592874838345296373,1993,1592874838345009771,imu_link,0.00128728489978,0.00401571482529,0.882852619182,0.469631206093,0.0,0.0,0.0,0.0,0.0,0.0,0.0,0.0,0.0,0.00187909107908,-0.0095808925489,0.00109519000899,0.0,0.0,0.0,0.0,0.0,0.0,0.0,0.0,0.0,0.0240650221705,-0.0625031555071,-9.80538330078,0.0,0.0,0.0,0.0,0.0,0.0,0.0,0.0,0.0
1592874838355593828,1994,1592874838354989615,imu_link,0.00128536287989,0.00400589703379,0.882870674944,0.469597350881,0.0,0.0,0.0,0.0,0.0,0.0,0.0,0.0,0.0,-0.000592756065442,-0.00117637454958,0.0121976990093,0.0,0.0,0.0,0.0,0.0,0.0,0.0,0.0,0.0,0.0216689621098,-0.0672959784046,-9.807883358,0.0,0.0,0.0,0.0,0.0,0.0,0.0,0.0,0.0
1592874838365381248,1995,1592874838364983435,imu_link,0.00130705752901,0.0040029640723,0.882874230831,0.46959063067,0.0,0.0,0.0,0.0,0.0,0.0,0.0,0.0,0.0,0.00308818961039,-0.00475973929913,0.00605007620642,0.0,0.0,0.0,0.0,0.0,0.0,0.0,0.0,0.0,0.021662687324,-0.0649157718755,-9.80542185307,0.0,0.0,0.0,0.0,0.0,0.0,0.0,0.0,0.0
1592874838375308091,1996,1592874838374985511,imu_link,0.00131742721003,0.00396914114436,0.882872206257,0.469594695161,0.0,0.0,0.0,0.0,0.0,0.0,0.0,0.0,0.0,-0.00301414671071,-0.00594849637734,0.00357473067214,0.0,0.0,0.0,0.0,0.0,0.0,0.0,0.0,0.0,0.0240650221705,-0.0600904524326,-9.805351758,0.0,0.0,0.0,0.0,0.0,0.0,0.0,0.0,0.0
1592874838385102123,1997,1592874838384895523,imu_link,0.00132013632707,0.00394652817671,0.882878879051,0.46958233259,0.0,0.0,0.0,0.0,0.0,0.0,0.0,0.0,0.0,-0.00180188983682,-0.00355426490351,0.00727536800537,0.0,0.0,0.0,0.0,0.0,0.0,0.0,0.0,0.0,0.0240524748806,-0.0601553861983,-9.80049300194,0.0,0.0,0.0,0.0,0.0,0.0,0.0,0.0,0.0
1592874838395417963,1998,1592874838395156759,imu_link,0.00135252224321,0.00392889836958,0.882879536072,0.469581152971,0.0,0.0,0.0,0.0,0.0,0.0,0.0,0.0,0.0,0.00186959238458,-0.0084082267892,0.00477627742533,0.0,0.0,0.0,0.0,0.0,0.0,0.0,0.0,0.0,0.0240587519482,-0.0601229033433,-9.80292179585,0.0,0.0,0.0,0.0,0.0,0.0,0.0,0.0,0.0
1592874838405427703,1999,1592874838404921235,imu_link,0.00133911507582,0.00390523120428,0.882889145086,0.469563322066,0.0,0.0,0.0,0.0,0.0,0.0,0.0,0.0,0.0,-0.00424850444049,-0.00112725002097,0.00852329251222,0.0,0.0,0.0,0.0,0.0,0.0,0.0,0.0,0.0,0.0264736340847,-0.0672961426899,-9.80787167549,0.0,0.0,0.0,0.0,0.0,0.0,0.0,0.0,0.0
1592874838415299403,2000,1592874838414965641,imu_link,0.00134269405682,0.00388778596237,0.882898699402,0.469545491819,0.0,0.0,0.0,0.0,0.0,0.0,0.0,0.0,0.0,-0.00180506105308,-0.00357057442438,0.00849693241913,0.0,0.0,0.0,0.0,0.0,0.0,0.0,0.0,0.0,0.0264861813746,-0.0696438800544,-9.81276314259,0.0,0.0,0.0,0.0,0.0,0.0,0.0,0.0,0.0
1592874838425102081,2001,1592874838424878829,imu_link,0.00136199495356,0.00391008707712,0.882906544088,0.469530500176,0.0,0.0,0.0,0.0,0.0,0.0,0.0,0.0,0.0,0.00674702493762,-0.00357086024606,0.00851898828217,0.0,0.0,0.0,0.0,0.0,0.0,0.0,0.0,0.0,0.0361268946901,-0.0694818582386,-9.8248884201,0.0,0.0,0.0,0.0,0.0,0.0,0.0,0.0,0.0
1592874838435557244,2002,1592874838435368647,imu_link,0.00134145890525,0.00391088800288,0.882891808457,0.469558260498,0.0,0.0,0.0,0.0,0.0,0.0,0.0,0.0,0.0,-0.000558109939411,0.00144648826159,-0.00120759114053,0.0,0.0,0.0,0.0,0.0,0.0,0.0,0.0,0.0,0.03613944198,-0.0670042213984,-9.82971563339,0.0,0.0,0.0,0.0,0.0,0.0,0.0,0.0,0.0
1592874838445430757,2003,1592874838444964574,imu_link,0.00128631851012,0.00389597490308,0.882868783295,0.469601829475,0.0,0.0,0.0,0.0,0.0,0.0,0.0,0.0,0.0,-0.00665728161113,0.00638217447212,-0.00482293163798,0.0,0.0,0.0,0.0,0.0,0.0,0.0,0.0,0.0,0.0337245598435,-0.0670690821484,-9.82486271858,0.0,0.0,0.0,0.0,0.0,0.0,0.0,0.0,0.0
1592874838455393267,2004,1592874838455144166,imu_link,0.00127893274325,0.00392200247429,0.882862687807,0.469613092562,0.0,0.0,0.0,0.0,0.0,0.0,0.0,0.0,0.0,0.00554105197952,0.00139731913023,0.00247298796054,0.0,0.0,0.0,0.0,0.0,0.0,0.0,0.0,0.0,0.0385229593143,-0.0622763322666,-9.8223544836,0.0,0.0,0.0,0.0,0.0,0.0,0.0,0.0,0.0
1592874838465563361,2005,1592874838464955601,imu_link,0.00127079085668,0.00393590642188,0.882856522565,0.469624588684,0.0,0.0,0.0,0.0,0.0,0.0,0.0,0.0,0.0,0.00309759155724,0.000175791793321,0.00245033392656,0.0,0.0,0.0,0.0,0.0,0.0,0.0,0.0,0.0,0.0409127491526,-0.0647540603764,-9.81752142906,0.0,0.0,0.0,0.0,0.0,0.0,0.0,0.0,0.0
1592874838475239541,2006,1592874838474983336,imu_link,0.00128177619087,0.00393816129983,0.882864458316,0.469609621045,0.0,0.0,0.0,0.0,0.0,0.0,0.0,0.0,0.0,0.00308181362829,-0.00357068781679,0.00850942326872,0.0,0.0,0.0,0.0,0.0,0.0,0.0,0.0,0.0,0.0336869156919,-0.0624385366216,-9.81021752357,0.0,0.0,0.0,0.0,0.0,0.0,0.0,0.0,0.0
1592874838485398313,2007,1592874838485181853,imu_link,0.00129610343365,0.00395223413642,0.88287246483,0.469594410961,0.0,0.0,0.0,0.0,0.0,0.0,0.0,0.0,0.0,0.00552526130693,-0.00234915175113,0.00853203621095,0.0,0.0,0.0,0.0,0.0,0.0,0.0,0.0,0.0,0.0264673592988,-0.0625032467768,-9.80537745953,0.0,0.0,0.0,0.0,0.0,0.0,0.0,0.0,0.0
1592874838495428171,2008,1592874838494976116,imu_link,0.00131287732532,0.00392475904053,0.882885637071,0.469569829177,0.0,0.0,0.0,0.0,0.0,0.0,0.0,0.0,0.0,-0.00180826243796,-0.00603008325291,0.00968573891147,0.0,0.0,0.0,0.0,0.0,0.0,0.0,0.0,0.0,0.0192917172797,-0.0647533165291,-9.81757750511,0.0,0.0,0.0,0.0,0.0,0.0,0.0,0.0,0.0
1592874838505402154,2009,1592874838504976468,imu_link,0.0013443267615,0.00390885189197,0.882881533093,0.469577589101,0.0,0.0,0.0,0.0,0.0,0.0,0.0,0.0,0.0,0.00187583728923,-0.00715387896673,0.00234915331157,0.0,0.0,0.0,0.0,0.0,0.0,0.0,0.0,0.0,0.0145058650989,-0.062243046239,-9.82484636307,0.0,0.0,0.0,0.0,0.0,0.0,0.0,0.0,0.0
1592874838515559694,2010,1592874838515022617,imu_link,0.00133506815639,0.00390896539145,0.882889282672,0.469563043823,0.0,0.0,0.0,0.0,0.0,0.0,0.0,0.0,0.0,0.000641487556731,0.00133221459492,0.00734673031901,0.0,0.0,0.0,0.0,0.0,0.0,0.0,0.0,0.0,0.0169207460945,-0.0645908611827,-9.82973315716,0.0,0.0,0.0,0.0,0.0,0.0,0.0,0.0,0.0
1592874838525102611,2011,1592874838524921788,imu_link,0.00136063702471,0.00390016016793,0.882890958194,0.469559893258,0.0,0.0,0.0,0.0,0.0,0.0,0.0,0.0,0.0,0.00186951878355,-0.00596490238579,0.00480868216583,0.0,0.0,0.0,0.0,0.0,0.0,0.0,0.0,0.0,0.0193168095779,-0.069448809512,-9.82736160755,0.0,0.0,0.0,0.0,0.0,0.0,0.0,0.0,0.0
1592874838535451633,2012,1592874838535215787,imu_link,0.00140299165536,0.00390876202724,0.882878239867,0.469583609982,0.0,0.0,0.0,0.0,0.0,0.0,0.0,0.0,0.0,0.00677219285,-0.00832668308597,-0.00131945651897,0.0,0.0,0.0,0.0,0.0,0.0,0.0,0.0,0.0,0.0289073337335,-0.0671338653192,-9.82001447678,0.0,0.0,0.0,0.0,0.0,0.0,0.0,0.0,0.0
1592874838545338631,2013,1592874838544979101,imu_link,0.00139537604246,0.00393311794158,0.882851641923,0.469633433502,0.0,0.0,0.0,0.0,0.0,0.0,0.0,0.0,0.0,0.00556622821429,0.00152796928691,-0.00730010939587,0.0,0.0,0.0,0.0,0.0,0.0,0.0,0.0,0.0,0.0336806409061,-0.0600582981482,-9.80775718689,0.0,0.0,0.0,0.0,0.0,0.0,0.0,0.0,0.0
1592874838555301553,2014,1592874838555030811,imu_link,0.00137672929359,0.00394548231155,0.882841009027,0.469653372783,0.0,0.0,0.0,0.0,0.0,0.0,0.0,0.0,0.0,0.00310699194365,0.0026680567065,-0.00118201894261,0.0,0.0,0.0,0.0,0.0,0.0,0.0,0.0,0.0,0.0312594862655,-0.052917573601,-9.80037734509,0.0,0.0,0.0,0.0,0.0,0.0,0.0,0.0,0.0
1592874838565335689,2015,1592874838565003861,imu_link,0.00134968336865,0.00394572349574,0.882844750406,0.469646416255,0.0,0.0,0.0,0.0,0.0,0.0,0.0,0.0,0.0,0.000647753917506,0.00380814035502,0.00493607177072,0.0,0.0,0.0,0.0,0.0,0.0,0.0,0.0,0.0,0.0240712946746,-0.0479945089668,-9.80762050152,0.0,0.0,0.0,0.0,0.0,0.0,0.0,0.0,0.0
1592874838575391146,2016,1592874838575189905,imu_link,0.00135333205582,0.00394202843202,0.882842455055,0.469650751576,0.0,0.0,0.0,0.0,0.0,0.0,0.0,0.0,0.0,0.00309750261182,-0.00104577608268,0.00243382830965,0.0,0.0,0.0,0.0,0.0,0.0,0.0,0.0,0.0,0.014474496874,-0.0455165572464,-9.81247224808,0.0,0.0,0.0,0.0,0.0,0.0,0.0,0.0,0.0
1592874838585366521,2017,1592874838584976593,imu_link,0.00137465076521,0.00393152610234,0.882828690124,0.469676651891,0.0,0.0,0.0,0.0,0.0,0.0,0.0,0.0,0.0,0.00311010711389,-0.00464534300742,-0.00250163072596,0.0,0.0,0.0,0.0,0.0,0.0,0.0,0.0,0.0,0.0120909806807,-0.0502444463782,-9.81983222961,0.0,0.0,0.0,0.0,0.0,0.0,0.0,0.0,0.0
1592874838595335284,2018,1592874838594972808,imu_link,0.0013648149633,0.00392774762468,0.882812348823,0.469707426858,0.0,0.0,0.0,0.0,0.0,0.0,0.0,0.0,0.0,0.000669797427012,0.00147917219187,-0.00364794055376,0.0,0.0,0.0,0.0,0.0,0.0,0.0,0.0,0.0,0.0121098027565,-0.0573850979097,-9.82721791267,0.0,0.0,0.0,0.0,0.0,0.0,0.0,0.0,0.0
1592874838605219738,2019,1592874838604975265,imu_link,0.0013565699347,0.00390267058536,0.882807426822,0.469716910519,0.0,0.0,0.0,0.0,0.0,0.0,0.0,0.0,0.0,-0.00300800947684,-0.00102923899678,0.00119640209297,0.0,0.0,0.0,0.0,0.0,0.0,0.0,0.0,0.0,0.0144995914539,-0.0574501183815,-9.8223521471,0.0,0.0,0.0,0.0,0.0,0.0,0.0,0.0,0.0
1592874838615262691,2020,1592874838614995295,imu_link,0.00132485582255,0.00388915180333,0.882814263949,0.46970426294,0.0,0.0,0.0,0.0,0.0,0.0,0.0,0.0,0.0,-0.00302063582514,0.00379194448663,0.0061481575157,0.0,0.0,0.0,0.0,0.0,0.0,0.0,0.0,0.0,0.0192791699897,-0.055167479068,-9.81258907318,0.0,0.0,0.0,0.0,0.0,0.0,0.0,0.0,0.0
1592874838625342173,2021,1592874838624914674,imu_link,0.00125886284191,0.00389292190549,0.882817442317,0.469698439389,0.0,0.0,0.0,0.0,0.0,0.0,0.0,0.0,0.0,-0.00302064596804,0.011121676868,0.00624609006247,0.0,0.0,0.0,0.0,0.0,0.0,0.0,0.0,0.0,0.0240775671788,-0.0527874368243,-9.81011354923,0.0,0.0,0.0,0.0,0.0,0.0,0.0,0.0,0.0
1592874838635403420,2022,1592874838634956665,imu_link,0.00129799991335,0.00390542988734,0.882813928551,0.469704833241,0.0,0.0,0.0,0.0,0.0,0.0,0.0,0.0,0.0,0.00798119775456,-0.00717037131984,0.00358634012984,0.0,0.0,0.0,0.0,0.0,0.0,0.0,0.0,0.0,0.0288885162212,-0.0575804970227,-9.81259608269,0.0,0.0,0.0,0.0,0.0,0.0,0.0,0.0,0.0
1592874838645384887,2023,1592874838645178968,imu_link,0.00130917931083,0.00392564658794,0.882802142673,0.469726784674,0.0,0.0,0.0,0.0,0.0,0.0,0.0,0.0,0.0,0.00676892475606,-0.00223486078952,-1.63828953535e-05,0.0,0.0,0.0,0.0,0.0,0.0,0.0,0.0,0.0,0.0361268946901,-0.0574183976278,-9.82472603321,0.0,0.0,0.0,0.0,0.0,0.0,0.0,0.0,0.0
1592874838655275553,2024,1592874838655036871,imu_link,0.00132751159722,0.00393912933942,0.882813126515,0.469705976782,0.0,0.0,0.0,0.0,0.0,0.0,0.0,0.0,0.0,0.00674368038183,-0.00480868996806,0.00972388349227,0.0,0.0,0.0,0.0,0.0,0.0,0.0,0.0,0.0,0.0433464533649,-0.0525283269584,-9.8295030117,0.0,0.0,0.0,0.0,0.0,0.0,0.0,0.0,0.0
1592874838665308587,2025,1592874838665010723,imu_link,0.00135152148014,0.00392591174421,0.882812508913,0.469707179756,0.0,0.0,0.0,0.0,0.0,0.0,0.0,0.0,0.0,0.00186938042401,-0.00840807594609,0.00477580252962,0.0,0.0,0.0,0.0,0.0,0.0,0.0,0.0,0.0,0.0433527235873,-0.0597339396365,-9.83202877045,0.0,0.0,0.0,0.0,0.0,0.0,0.0,0.0,0.0
1592874838675985750,2026,1592874838675014172,imu_link,0.00137073082959,0.00392605546718,0.882800537235,0.469729622914,0.0,0.0,0.0,0.0,0.0,0.0,0.0,0.0,0.0,0.00310371864822,-0.00589956131288,-7.48817125193e-05,0.0,0.0,0.0,0.0,0.0,0.0,0.0,0.0,0.0,0.0385417791083,-0.0670042944141,-9.82970979214,0.0,0.0,0.0,0.0,0.0,0.0,0.0,0.0,0.0
1592874838685380106,2027,1592874838684973106,imu_link,0.00140526138308,0.00392340113938,0.882802938313,0.469725030491,0.0,0.0,0.0,0.0,0.0,0.0,0.0,0.0,0.0,0.00430966871977,-0.00842446635007,0.00600368414868,0.0,0.0,0.0,0.0,0.0,0.0,0.0,0.0,0.0,0.0337308300659,-0.0646239235997,-9.82725880146,0.0,0.0,0.0,0.0,0.0,0.0,0.0,0.0,0.0
1592874838695356182,2028,1592874838694933202,imu_link,0.00141414348894,0.00394634187336,0.88279689274,0.469736173562,0.0,0.0,0.0,0.0,0.0,0.0,0.0,0.0,0.0,0.00554085588348,-0.00104578908639,0.0024399202906,0.0,0.0,0.0,0.0,0.0,0.0,0.0,0.0,0.0,0.0289198855869,-0.0743069860153,-9.82497136593,0.0,0.0,0.0,0.0,0.0,0.0,0.0,0.0,0.0
1592874838705129044,2029,1592874838704929827,imu_link,0.00140651408795,0.00395854829798,0.882796770713,0.469736323092,0.0,0.0,0.0,0.0,0.0,0.0,0.0,0.0,0.0,0.00186936364922,0.00136492869383,0.00490632550995,0.0,0.0,0.0,0.0,0.0,0.0,0.0,0.0,0.0,0.0240963892546,-0.0768169414252,-9.81772587299,0.0,0.0,0.0,0.0,0.0,0.0,0.0,0.0,0.0
1592874838715301944,2030,1592874838714968172,imu_link,0.00142329713692,0.00394682065035,0.882796424463,0.469737021947,0.0,0.0,0.0,0.0,0.0,0.0,0.0,0.0,0.0,0.000647631942649,-0.00474313199316,0.0048215246359,0.0,0.0,0.0,0.0,0.0,0.0,0.0,0.0,0.0,0.0192979875021,-0.0695462261327,-9.82007172108,0.0,0.0,0.0,0.0,0.0,0.0,0.0,0.0,0.0
1592874838725494320,2031,1592874838725325851,imu_link,0.00141101792575,0.00396841552469,0.882796382128,0.469736956613,0.0,0.0,0.0,0.0,0.0,0.0,0.0,0.0,0.0,0.00431280677656,0.00380809562223,0.00494524407194,0.0,0.0,0.0,0.0,0.0,0.0,0.0,0.0,0.0,0.0169144724496,-0.0646233440377,-9.827303195,0.0,0.0,0.0,0.0,0.0,0.0,0.0,0.0,0.0
1592874838735182552,2032,1592874838734989286,imu_link,0.00139119984897,0.00397456767786,0.882807761514,0.469715577328,0.0,0.0,0.0,0.0,0.0,0.0,0.0,0.0,0.0,0.000635002733524,0.00374292151704,0.00982223111766,0.0,0.0,0.0,0.0,0.0,0.0,0.0,0.0,0.0,0.0169144724496,-0.0670360334218,-9.82733473778,0.0,0.0,0.0,0.0,0.0,0.0,0.0,0.0,0.0
1592874838745348928,2033,1592874838745164659,imu_link,0.00138256296065,0.00399136708515,0.882816310775,0.469699392099,0.0,0.0,0.0,0.0,0.0,0.0,0.0,0.0,0.0,0.00430332966823,0.0037591186858,0.00861005486681,0.0,0.0,0.0,0.0,0.0,0.0,0.0,0.0,0.0,0.00729885371402,-0.0598300876096,-9.82483351231,0.0,0.0,0.0,0.0,0.0,0.0,0.0,0.0,0.0
1592874838755350042,2034,1592874838754995511,imu_link,0.00137485190758,0.00402271552204,0.882821882257,0.469688675349,0.0,0.0,0.0,0.0,0.0,0.0,0.0,0.0,0.0,0.00674993048796,0.00499698117716,0.00741104877968,0.0,0.0,0.0,0.0,0.0,0.0,0.0,0.0,0.0,0.0072674849187,-0.0624051410705,-9.81271641254,0.0,0.0,0.0,0.0,0.0,0.0,0.0,0.0,0.0
1592874838765391743,2035,1592874838764968402,imu_link,0.00144631074988,0.00403890312471,0.882843876853,0.469646978645,0.0,0.0,0.0,0.0,0.0,0.0,0.0,0.0,0.0,0.0103961839396,-0.010982179243,0.0145379642809,0.0,0.0,0.0,0.0,0.0,0.0,0.0,0.0,0.0,0.0120470697293,-0.074598633498,-9.80314610004,0.0,0.0,0.0,0.0,0.0,0.0,0.0,0.0,0.0
1592874838775293228,2036,1592874838775023929,imu_link,0.00146062175117,0.00406850815911,0.882851964081,0.469631476099,0.0,0.0,0.0,0.0,0.0,0.0,0.0,0.0,0.0,0.00674677162523,9.41650938714e-05,0.00856732465554,0.0,0.0,0.0,0.0,0.0,0.0,0.0,0.0,0.0,0.0144368550042,-0.0819017540663,-9.79837788343,0.0,0.0,0.0,0.0,0.0,0.0,0.0,0.0,0.0
1592874838785422615,2037,1592874838784982292,imu_link,0.00144367517398,0.00405831464569,0.882845909598,0.469642998235,0.0,0.0,0.0,0.0,0.0,0.0,0.0,0.0,0.0,-0.00301127653048,0.00139775449465,0.00245031156017,0.0,0.0,0.0,0.0,0.0,0.0,0.0,0.0,0.0,0.0192540776916,-0.079424267821,-9.80319283009,0.0,0.0,0.0,0.0,0.0,0.0,0.0,0.0,0.0
1592874838795151564,2038,1592874838794960763,imu_link,0.00142060408163,0.00405458951567,0.882834224308,0.46966506638,0.0,0.0,0.0,0.0,0.0,0.0,0.0,0.0,0.0,-0.00178324523864,0.00265199087527,2.65376872709e-05,0.0,0.0,0.0,0.0,0.0,0.0,0.0,0.0,0.0,0.0240524748806,-0.0722188604996,-9.80065305233,0.0,0.0,0.0,0.0,0.0,0.0,0.0,0.0,0.0
1592874838805114266,2039,1592874838804939605,imu_link,0.00138440878289,0.00407868489348,0.88280548086,0.469718991213,0.0,0.0,0.0,0.0,0.0,0.0,0.0,0.0,0.0,0.00190085708929,0.00763631215454,-0.00722842406993,0.0,0.0,0.0,0.0,0.0,0.0,0.0,0.0,0.0,0.0240399275906,-0.0722838079557,-9.79579254389,0.0,0.0,0.0,0.0,0.0,0.0,0.0,0.0,0.0
1592874838815208085,2040,1592874838814947743,imu_link,0.00138378323933,0.00410150941229,0.882810874284,0.469708657585,0.0,0.0,0.0,0.0,0.0,0.0,0.0,0.0,0.0,0.00552818246173,0.0013321707724,0.007358795687,0.0,0.0,0.0,0.0,0.0,0.0,0.0,0.0,0.0,0.0240587519482,-0.067360985186,-9.80301876068,0.0,0.0,0.0,0.0,0.0,0.0,0.0,0.0,0.0
1592874838825067301,2041,1592874838824894414,imu_link,0.00140695105395,0.00410333205619,0.88282447795,0.469683004043,0.0,0.0,0.0,0.0,0.0,0.0,0.0,0.0,0.0,0.00429698541519,-0.00604648301957,0.0109225192336,0.0,0.0,0.0,0.0,0.0,0.0,0.0,0.0,0.0,0.0360892505385,-0.0648513127118,-9.81024439335,0.0,0.0,0.0,0.0,0.0,0.0,0.0,0.0,0.0
1592874838835474303,2042,1592874838835013160,imu_link,0.00142781698079,0.00409940413221,0.882829539533,0.469673461409,0.0,0.0,0.0,0.0,0.0,0.0,0.0,0.0,0.0,0.00308471319692,-0.0059974558888,0.00725449444021,0.0,0.0,0.0,0.0,0.0,0.0,0.0,0.0,0.0,0.0336869156919,-0.0648512260057,-9.8102502346,0.0,0.0,0.0,0.0,0.0,0.0,0.0,0.0,0.0
1592874838845355089,2043,1592874838845157455,imu_link,0.00147174318333,0.00410811455796,0.882805808748,0.469717852979,0.0,0.0,0.0,0.0,0.0,0.0,0.0,0.0,0.0,0.00800315374905,-0.00827761070226,-0.0049817340599,0.0,0.0,0.0,0.0,0.0,0.0,0.0,0.0,0.0,0.0264485395048,-0.060187942069,-9.79805603027,0.0,0.0,0.0,0.0,0.0,0.0,0.0,0.0,0.0
1592874838855262846,2044,1592874838854988838,imu_link,0.00143393434041,0.00410251318086,0.8827885897,0.469750379578,0.0,0.0,0.0,0.0,0.0,0.0,0.0,0.0,0.0,-0.00177698342917,0.00512792287715,-0.00238417049865,0.0,0.0,0.0,0.0,0.0,0.0,0.0,0.0,0.0,0.0240399275906,-0.0553949548863,-9.79556765556,0.0,0.0,0.0,0.0,0.0,0.0,0.0,0.0,0.0
1592874838865411369,2045,1592874838865237821,imu_link,0.00141677524865,0.00406690926156,0.882788348511,0.469751194495,0.0,0.0,0.0,0.0,0.0,0.0,0.0,0.0,0.0,-0.00546109264907,-0.0010780063133,0.0048544255982,0.0,0.0,0.0,0.0,0.0,0.0,0.0,0.0,0.0,0.0216124981642,-0.0579374524765,-9.78588635921,0.0,0.0,0.0,0.0,0.0,0.0,0.0,0.0,0.0
1592874838875227333,2046,1592874838874963293,imu_link,0.00139184516925,0.00405509308075,0.882791085644,0.469746227334,0.0,0.0,0.0,0.0,0.0,0.0,0.0,0.0,0.0,-0.00179908285465,0.00257040556015,0.00613445784066,0.0,0.0,0.0,0.0,0.0,0.0,0.0,0.0,0.0,0.0216124981642,-0.0555247630924,-9.78585481644,0.0,0.0,0.0,0.0,0.0,0.0,0.0,0.0,0.0
1592874838885122186,2047,1592874838884928219,imu_link,0.00137713996329,0.004051593937,0.882798102497,0.469733113905,0.0,0.0,0.0,0.0,0.0,0.0,0.0,0.0,0.0,0.000641206741481,0.00133237610108,0.0073460406019,0.0,0.0,0.0,0.0,0.0,0.0,0.0,0.0,0.0,0.0240650221705,-0.0552650736645,-9.80528633595,0.0,0.0,0.0,0.0,0.0,0.0,0.0,0.0,0.0
1592874838895617775,2048,1592874838895350369,imu_link,0.00137741662028,0.00404574127101,0.882793501908,0.469741809604,0.0,0.0,0.0,0.0,0.0,0.0,0.0,0.0,0.0,0.00187553833379,-0.00226722599872,0.00241373158649,0.0,0.0,0.0,0.0,0.0,0.0,0.0,0.0,0.0,0.0313159479294,-0.0526253237389,-9.82224466801,0.0,0.0,0.0,0.0,0.0,0.0,0.0,0.0,0.0
1592874838905173456,2049,1592874838904964090,imu_link,0.00136266576016,0.00402865467789,0.882774749322,0.46977723981,0.0,0.0,0.0,0.0,0.0,0.0,0.0,0.0,0.0,-0.00177388360331,0.000257776111219,-0.00367118183556,0.0,0.0,0.0,0.0,0.0,0.0,0.0,0.0,0.0,0.0217003269121,-0.0550701674074,-9.81987195015,0.0,0.0,0.0,0.0,0.0,0.0,0.0,0.0,0.0
1592874838915209717,2050,1592874838915040176,imu_link,0.00131862715982,0.00400381231877,0.882779103987,0.469769394782,0.0,0.0,0.0,0.0,0.0,0.0,0.0,0.0,0.0,-0.00668602502531,0.00501383451344,0.00615442270614,0.0,0.0,0.0,0.0,0.0,0.0,0.0,0.0,0.0,0.0192854424939,-0.0623730917461,-9.81511483192,0.0,0.0,0.0,0.0,0.0,0.0,0.0,0.0,0.0
1592874838925377055,2051,1592874838924963172,imu_link,0.001346732448,0.00399563901954,0.882785878286,0.469756654321,0.0,0.0,0.0,0.0,0.0,0.0,0.0,0.0,0.0,0.00186290080229,-0.00599738202769,0.00725117069036,0.0,0.0,0.0,0.0,0.0,0.0,0.0,0.0,0.0,0.0168580096448,-0.0745663468726,-9.80556321144,0.0,0.0,0.0,0.0,0.0,0.0,0.0,0.0,0.0
1592874838935198299,2052,1592874838934961551,imu_link,0.00136112353391,0.00401656125505,0.882789881774,0.469748910818,0.0,0.0,0.0,0.0,0.0,0.0,0.0,0.0,0.0,0.00553123469398,-0.00109468962599,0.00610429858187,0.0,0.0,0.0,0.0,0.0,0.0,0.0,0.0,0.0,0.0192728952039,-0.0769141891971,-9.81044883728,0.0,0.0,0.0,0.0,0.0,0.0,0.0,0.0,0.0
1592874838945794710,2053,1592874838945512606,imu_link,0.00140346108496,0.0040278833665,0.882796505454,0.469736241322,0.0,0.0,0.0,0.0,0.0,0.0,0.0,0.0,0.0,0.00674980461198,-0.00721916750462,0.00724742562011,0.0,0.0,0.0,0.0,0.0,0.0,0.0,0.0,0.0,0.0216815093998,-0.0744690945372,-9.81284024715,0.0,0.0,0.0,0.0,0.0,0.0,0.0,0.0,0.0
1592874838955586067,2054,1592874838955428469,imu_link,0.00144754189278,0.00404353446706,0.88279822931,0.469732733348,0.0,0.0,0.0,0.0,0.0,0.0,0.0,0.0,0.0,0.00797783551371,-0.00718655522482,0.00480733081965,0.0,0.0,0.0,0.0,0.0,0.0,0.0,0.0,0.0,0.0216815093998,-0.072056423407,-9.81280870438,0.0,0.0,0.0,0.0,0.0,0.0,0.0,0.0,0.0
1592874838965214816,2055,1592874838964983358,imu_link,0.00145556422441,0.00403565682593,0.882800239873,0.469728997708,0.0,0.0,0.0,0.0,0.0,0.0,0.0,0.0,0.0,0.000647466600398,-0.00352142791949,0.00483736784351,0.0,0.0,0.0,0.0,0.0,0.0,0.0,0.0,0.0,0.0264799065888,-0.0696763629094,-9.81033318043,0.0,0.0,0.0,0.0,0.0,0.0,0.0,0.0,0.0
1592874838975216581,2056,1592874838974984742,imu_link,0.00147777842215,0.0040696375523,0.882807872553,0.469714290159,0.0,0.0,0.0,0.0,0.0,0.0,0.0,0.0,0.0,0.00919324448839,-0.0023327517244,0.00731898663053,0.0,0.0,0.0,0.0,0.0,0.0,0.0,0.0,0.0,0.028863423923,-0.0721865419298,-9.80307016373,0.0,0.0,0.0,0.0,0.0,0.0,0.0,0.0,0.0
1592874838985060017,2057,1592874838984928869,imu_link,0.0014938561094,0.00407904973802,0.882818340575,0.469694482927,0.0,0.0,0.0,0.0,0.0,0.0,0.0,0.0,0.0,0.00430317648445,-0.00357051668788,0.00851164742433,0.0,0.0,0.0,0.0,0.0,0.0,0.0,0.0,0.0,0.0288571468554,-0.0722190247849,-9.80064136982,0.0,0.0,0.0,0.0,0.0,0.0,0.0,0.0,0.0
1592874838995528686,2058,1592874838995005846,imu_link,0.00149490129291,0.00407999465119,0.882806014772,0.469717637732,0.0,0.0,0.0,0.0,0.0,0.0,0.0,0.0,0.0,0.00188494821291,-0.00221820510972,-0.0012512881781,0.0,0.0,0.0,0.0,0.0,0.0,0.0,0.0,0.0,0.0336931904778,-0.0672314325348,-9.81271290779,0.0,0.0,0.0,0.0,0.0,0.0,0.0,0.0,0.0
1592874839005162846,2059,1592874839004908113,imu_link,0.00150972501714,0.00408602744424,0.882793574658,0.469740917585,0.0,0.0,0.0,0.0,0.0,0.0,0.0,0.0,0.0,0.00432839485125,-0.00466151598927,-0.00127764749096,0.0,0.0,0.0,0.0,0.0,0.0,0.0,0.0,0.0,0.0385041349567,-0.0647864382714,-9.81509730816,0.0,0.0,0.0,0.0,0.0,0.0,0.0,0.0,0.0
1592874839015313472,2060,1592874839014969872,imu_link,0.0014849086604,0.00411122885435,0.882810176583,0.469709575127,0.0,0.0,0.0,0.0,0.0,0.0,0.0,0.0,0.0,0.00307512165589,0.0049482546923,0.0110659564645,0.0,0.0,0.0,0.0,0.0,0.0,0.0,0.0,0.0,0.0312845785636,-0.0745019059628,-9.81038575172,0.0,0.0,0.0,0.0,0.0,0.0,0.0,0.0,0.0
1592874839025171465,2061,1592874839024899962,imu_link,0.00147724161345,0.00413258680722,0.88282082799,0.469689392206,0.0,0.0,0.0,0.0,0.0,0.0,0.0,0.0,0.0,0.00430315229754,0.00253762111114,0.00859320985291,0.0,0.0,0.0,0.0,0.0,0.0,0.0,0.0,0.0,0.0216877819039,-0.0720239542425,-9.81523749828,0.0,0.0,0.0,0.0,0.0,0.0,0.0,0.0,0.0
1592874839035308917,2062,1592874839034976478,imu_link,0.00143723483944,0.00411609176752,0.882831682316,0.469669258993,0.0,0.0,0.0,0.0,0.0,0.0,0.0,0.0,0.0,-0.00547066338415,0.00498120610903,0.00860061416889,0.0,0.0,0.0,0.0,0.0,0.0,0.0,0.0,0.0,0.0192917172797,-0.0719913983718,-9.8176733017,0.0,0.0,0.0,0.0,0.0,0.0,0.0,0.0,0.0
1592874839045735236,2063,1592874839044986840,imu_link,0.00138417372632,0.00412738433132,0.882856872248,0.469621966997,0.0,0.0,0.0,0.0,0.0,0.0,0.0,0.0,0.0,-0.00182126459366,0.00978594138693,0.0147834473941,0.0,0.0,0.0,0.0,0.0,0.0,0.0,0.0,0.0,0.0217003269121,-0.0719590204768,-9.8200974226,0.0,0.0,0.0,0.0,0.0,0.0,0.0,0.0,0.0
1592874839055434829,2064,1592874839055007591,imu_link,0.00139428496701,0.00411338026897,0.882867137567,0.469602761359,0.0,0.0,0.0,0.0,0.0,0.0,0.0,0.0,0.0,-0.000583769717359,-0.0035703088885,0.00849891834666,0.0,0.0,0.0,0.0,0.0,0.0,0.0,0.0,0.0,0.0193105393555,-0.0743066574447,-9.8249958992,0.0,0.0,0.0,0.0,0.0,0.0,0.0,0.0,0.0
1592874839065378935,2065,1592874839065167715,imu_link,0.00139525229341,0.00409483035866,0.882851782008,0.469631788363,0.0,0.0,0.0,0.0,0.0,0.0,0.0,0.0,0.0,-0.00177711567696,-0.00220172159913,-0.002482483014,0.0,0.0,0.0,0.0,0.0,0.0,0.0,0.0,0.0,0.0169332945254,-0.0693512924947,-9.83465616703,0.0,0.0,0.0,0.0,0.0,0.0,0.0,0.0,0.0
1592874839075181012,2066,1592874839074982567,imu_link,0.00137378567214,0.00407074824327,0.882830939456,0.469671240402,0.0,0.0,0.0,0.0,0.0,0.0,0.0,0.0,0.0,-0.00421426357528,0.00149588235724,-0.00488306602295,0.0,0.0,0.0,0.0,0.0,0.0,0.0,0.0,0.0,0.0145309596788,-0.0621131467633,-9.8345662117,0.0,0.0,0.0,0.0,0.0,0.0,0.0,0.0,0.0
1592874839085289219,2067,1592874839085154013,imu_link,0.00139936733778,0.00405110661349,0.882818785109,0.469694180254,0.0,0.0,0.0,0.0,0.0,0.0,0.0,0.0,0.0,0.00188173720528,-0.00712097904472,-9.51238903724e-05,0.0,0.0,0.0,0.0,0.0,0.0,0.0,0.0,0.0,0.0217254237738,-0.0525275785476,-9.82955908775,0.0,0.0,0.0,0.0,0.0,0.0,0.0,0.0,0.0
1592874839095559843,2068,1592874839095361367,imu_link,0.00139734408381,0.00406982370823,0.882806935844,0.469716295214,0.0,0.0,0.0,0.0,0.0,0.0,0.0,0.0,0.0,0.00676863139223,0.000208589246045,1.54237493776e-05,0.0,0.0,0.0,0.0,0.0,0.0,0.0,0.0,0.0,0.0337433750741,-0.045257461071,-9.83185937405,0.0,0.0,0.0,0.0,0.0,0.0,0.0,0.0,0.0
1592874839105464845,2069,1592874839105211335,imu_link,0.00140968156912,0.00408892843931,0.882803595887,0.469722369651,0.0,0.0,0.0,0.0,0.0,0.0,0.0,0.0,0.0,0.00798088098403,-0.00228366633697,0.00365075689861,0.0,0.0,0.0,0.0,0.0,0.0,0.0,0.0,0.0,0.0337245598435,-0.0477675396949,-9.8246045351,0.0,0.0,0.0,0.0,0.0,0.0,0.0,0.0,0.0
1592874839115469686,2070,1592874839115223350,imu_link,0.00140874575844,0.00406827859766,0.882794562828,0.469739528235,0.0,0.0,0.0,0.0,0.0,0.0,0.0,0.0,0.0,-0.000564913743775,-0.0034723290082,0.00116909975062,0.0,0.0,0.0,0.0,0.0,0.0,0.0,0.0,0.0,0.0312971258536,-0.0503100509755,-9.8149220705,0.0,0.0,0.0,0.0,0.0,0.0,0.0,0.0,0.0
1592874839125137479,2071,1592874839124927842,imu_link,0.00138682948141,0.00404663806382,0.882791405728,0.469745713548,0.0,0.0,0.0,0.0,0.0,0.0,0.0,0.0,0.0,-0.00301468844553,0.000159972805134,0.00365498232613,0.0,0.0,0.0,0.0,0.0,0.0,0.0,0.0,0.0,0.0312783083413,-0.0528201569803,-9.80766606331,0.0,0.0,0.0,0.0,0.0,0.0,0.0,0.0,0.0
1592874839135346737,2072,1592874839134946961,imu_link,0.00139743798296,0.00404912409352,0.88279671464,0.469735683531,0.0,0.0,0.0,0.0,0.0,0.0,0.0,0.0,0.0,0.00430620088875,-0.00355410989922,0.00728975999826,0.0,0.0,0.0,0.0,0.0,0.0,0.0,0.0,0.0,0.0336806409061,-0.052820229996,-9.8076590538,0.0,0.0,0.0,0.0,0.0,0.0,0.0,0.0,0.0
1592874839145402555,2073,1592874839145212956,imu_link,0.00133953888048,0.00404127257427,0.882805361622,0.469719668785,0.0,0.0,0.0,0.0,0.0,0.0,0.0,0.0,0.0,-0.00424904799583,0.007424466014,0.00863621002133,0.0,0.0,0.0,0.0,0.0,0.0,0.0,0.0,0.0,0.0360955276061,-0.0551680586301,-9.81254584789,0.0,0.0,0.0,0.0,0.0,0.0,0.0,0.0,0.0
1592874839155421682,2074,1592874839155035902,imu_link,0.00130669500111,0.00403408260765,0.882805226325,0.469720077386,0.0,0.0,0.0,0.0,0.0,0.0,0.0,0.0,0.0,-0.00179614869614,0.0038084940561,0.00492867005548,0.0,0.0,0.0,0.0,0.0,0.0,0.0,0.0,0.0,0.0288947887253,-0.0551353384741,-9.81499333382,0.0,0.0,0.0,0.0,0.0,0.0,0.0,0.0,0.0
1592874839165352804,2075,1592874839165208010,imu_link,0.00129014582513,0.00403767772363,0.882790690584,0.469747410105,0.0,0.0,0.0,0.0,0.0,0.0,0.0,0.0,0.0,0.00188479216832,0.00266837425725,-0.00118630145645,0.0,0.0,0.0,0.0,0.0,0.0,0.0,0.0,0.0,0.0216877819039,-0.052722411789,-9.8149793148,0.0,0.0,0.0,0.0,0.0,0.0,0.0,0.0,0.0
1592874839175345191,2076,1592874839175152146,imu_link,0.00124836948797,0.00403935858034,0.882787818262,0.469752906414,0.0,0.0,0.0,0.0,0.0,0.0,0.0,0.0,0.0,-0.00179301389029,0.00748969109376,0.00375598713088,0.0,0.0,0.0,0.0,0.0,0.0,0.0,0.0,0.0,0.0168705557939,-0.0624379524961,-9.81026191711,0.0,0.0,0.0,0.0,0.0,0.0,0.0,0.0,0.0
1592874839185155514,2077,1592874839184938884,imu_link,0.00123482335481,0.00401384839603,0.882781835698,0.469764403498,0.0,0.0,0.0,0.0,0.0,0.0,0.0,0.0,0.0,-0.00423331271906,0.000176363615484,0.00243008818082,0.0,0.0,0.0,0.0,0.0,0.0,0.0,0.0,0.0,0.0144556747982,-0.0649155163206,-9.80544054508,0.0,0.0,0.0,0.0,0.0,0.0,0.0,0.0,0.0
1592874839195136239,2078,1592874839194932624,imu_link,0.00120717428919,0.00400439039039,0.882758847566,0.469807752843,0.0,0.0,0.0,0.0,0.0,0.0,0.0,0.0,0.0,-0.00299267341416,0.0039391418721,-0.00484750502047,0.0,0.0,0.0,0.0,0.0,0.0,0.0,0.0,0.0,0.0168642832898,-0.0672957958654,-9.80789620876,0.0,0.0,0.0,0.0,0.0,0.0,0.0,0.0,0.0
1592874839205222925,2079,1592874839204953966,imu_link,0.00116038311723,0.00398598915141,0.882747464967,0.469829414252,0.0,0.0,0.0,0.0,0.0,0.0,0.0,0.0,0.0,-0.00667046841961,0.00631721362787,6.21346978538e-05,0.0,0.0,0.0,0.0,0.0,0.0,0.0,0.0,0.0,0.0192854424939,-0.0696111598983,-9.81521179676,0.0,0.0,0.0,0.0,0.0,0.0,0.0,0.0,0.0
1592874839215557209,2080,1592874839215408989,imu_link,0.00115962590507,0.00400089217272,0.882750083587,0.469824369373,0.0,0.0,0.0,0.0,0.0,0.0,0.0,0.0,0.0,0.00308756933313,0.00134875948305,0.00613012708304,0.0,0.0,0.0,0.0,0.0,0.0,0.0,0.0,0.0,0.0192854424939,-0.0744365386665,-9.81527605057,0.0,0.0,0.0,0.0,0.0,0.0,0.0,0.0,0.0
1592874839225135022,2081,1592874839224929814,imu_link,0.00115837072874,0.00402292566065,0.882746504991,0.469830908064,0.0,0.0,0.0,0.0,0.0,0.0,0.0,0.0,0.0,0.00431875701699,0.00139769766841,0.00246841403342,0.0,0.0,0.0,0.0,0.0,0.0,0.0,0.0,0.0,0.0264861813746,-0.0744692588225,-9.81282856464,0.0,0.0,0.0,0.0,0.0,0.0,0.0,0.0,0.0
1592874839235235935,2082,1592874839234994508,imu_link,0.00117525272412,0.00402149071008,0.882748490722,0.469827147493,0.0,0.0,0.0,0.0,0.0,0.0,0.0,0.0,0.0,0.0018689916129,-0.00474296814634,0.00482369937739,0.0,0.0,0.0,0.0,0.0,0.0,0.0,0.0,0.0,0.0336869156919,-0.0745019789785,-9.81037874222,0.0,0.0,0.0,0.0,0.0,0.0,0.0,0.0,0.0
1592874839245510396,2083,1592874839245393265,imu_link,0.00120862784518,0.00404853792133,0.882747375034,0.46982892677,0.0,0.0,0.0,0.0,0.0,0.0,0.0,0.0,0.0,0.00920250313429,-0.00594850834076,0.00360466288605,0.0,0.0,0.0,0.0,0.0,0.0,0.0,0.0,0.0,0.0432962596416,-0.0672642576508,-9.81025724411,0.0,0.0,0.0,0.0,0.0,0.0,0.0,0.0,0.0
1592874839255198679,2084,1592874839254970827,imu_link,0.00121753660593,0.00406108687301,0.882737840027,0.46984671007,0.0,0.0,0.0,0.0,0.0,0.0,0.0,0.0,0.0,0.00554677465493,-0.00345614770397,-3.70148342003e-05,0.0,0.0,0.0,0.0,0.0,0.0,0.0,0.0,0.0,0.0481197536923,-0.0551035447046,-9.81737422943,0.0,0.0,0.0,0.0,0.0,0.0,0.0,0.0,0.0
1592874839265069586,2085,1592874839264932126,imu_link,0.00121808151037,0.00405727381576,0.882736982847,0.469848352047,0.0,0.0,0.0,0.0,0.0,0.0,0.0,0.0,0.0,0.00187212069711,-0.00350498550064,0.00361835813982,0.0,0.0,0.0,0.0,0.0,0.0,0.0,0.0,0.0,0.048132303264,-0.055038592685,-9.8222329855,0.0,0.0,0.0,0.0,0.0,0.0,0.0,0.0,0.0
1592874839275269947,2086,1592874839274977814,imu_link,0.00118064370547,0.00404330501289,0.882747825044,0.469828197477,0.0,0.0,0.0,0.0,0.0,0.0,0.0,0.0,0.0,-0.00424913225991,0.00253804217147,0.00857066817104,0.0,0.0,0.0,0.0,0.0,0.0,0.0,0.0,0.0,0.0457236890681,-0.0623090706766,-9.81990582943,0.0,0.0,0.0,0.0,0.0,0.0,0.0,0.0,0.0
1592874839285371271,2087,1592874839285192222,imu_link,0.00118976981896,0.0040403342572,0.882746123273,0.46983139741,0.0,0.0,0.0,0.0,0.0,0.0,0.0,0.0,0.0,0.00187210717325,-0.00350496677529,0.00361832407008,0.0,0.0,0.0,0.0,0.0,0.0,0.0,0.0,0.0,0.0337182873394,-0.0646888573654,-9.82240004539,0.0,0.0,0.0,0.0,0.0,0.0,0.0,0.0,0.0
1592874839295354170,2088,1592874839295169611,imu_link,0.00124922144835,0.00402963757587,0.882741103052,0.469840767121,0.0,0.0,0.0,0.0,0.0,0.0,0.0,0.0,0.0,0.00554043560338,-0.0120401251785,0.00229187194194,0.0,0.0,0.0,0.0,0.0,0.0,0.0,0.0,0.0,0.0217191489879,-0.0622108326294,-9.82725763321,0.0,0.0,0.0,0.0,0.0,0.0,0.0,0.0,0.0
1592874839305608162,2089,1592874839305441617,imu_link,0.00120890420734,0.00403633982398,0.882734107867,0.469853957438,0.0,0.0,0.0,0.0,0.0,0.0,0.0,0.0,0.0,-0.000565054834095,0.0075223699526,0.00131567581854,0.0,0.0,0.0,0.0,0.0,0.0,0.0,0.0,0.0,0.0192917172797,-0.0599279240705,-9.8175132513,0.0,0.0,0.0,0.0,0.0,0.0,0.0,0.0,0.0
1592874839315446308,2090,1592874839315028547,imu_link,0.0011590911298,0.00400591803338,0.882729976082,0.469862105787,0.0,0.0,0.0,0.0,0.0,0.0,0.0,0.0,0.0,-0.00789857266229,0.00506305565966,0.00248570039345,0.0,0.0,0.0,0.0,0.0,0.0,0.0,0.0,0.0,0.0264861813746,-0.0575804194435,-9.81260192394,0.0,0.0,0.0,0.0,0.0,0.0,0.0,0.0,0.0
1592874839325055370,2091,1592874839324907550,imu_link,0.00110991815622,0.0039824937801,0.882740137202,0.469843333461,0.0,0.0,0.0,0.0,0.0,0.0,0.0,0.0,0.0,-0.00669262623178,0.00498139232224,0.00859692423439,0.0,0.0,0.0,0.0,0.0,0.0,0.0,0.0,0.0,0.0337120079901,-0.0574832583778,-9.8198731184,0.0,0.0,0.0,0.0,0.0,0.0,0.0,0.0,0.0
1592874839335549747,2092,1592874839334961003,imu_link,0.00108818965833,0.00398184118671,0.882750108211,0.469824655843,0.0,0.0,0.0,0.0,0.0,0.0,0.0,0.0,0.0,-0.000584003069046,0.00253794204286,0.00858002408474,0.0,0.0,0.0,0.0,0.0,0.0,0.0,0.0,0.0,0.0312971258536,-0.0623735115863,-9.8150844574,0.0,0.0,0.0,0.0,0.0,0.0,0.0,0.0,0.0
1592874839345224203,2093,1592874839345106650,imu_link,0.00111989136121,0.00399531223081,0.882742489562,0.469838781334,0.0,0.0,0.0,0.0,0.0,0.0,0.0,0.0,0.0,0.0067652790342,-0.00469408561689,0.00117127384192,0.0,0.0,0.0,0.0,0.0,0.0,0.0,0.0,0.0,0.0216752323322,-0.0648508198559,-9.81028177738,0.0,0.0,0.0,0.0,0.0,0.0,0.0,0.0,0.0
1592874839355485419,2094,1592874839355230006,imu_link,0.0011107582335,0.00398219936043,0.882727469415,0.469867133394,0.0,0.0,0.0,0.0,0.0,0.0,0.0,0.0,0.0,-0.00177735455523,0.000241669822179,-0.00245037007689,0.0,0.0,0.0,0.0,0.0,0.0,0.0,0.0,0.0,0.0192854424939,-0.0647857811302,-9.8151463747,0.0,0.0,0.0,0.0,0.0,0.0,0.0,0.0,0.0
1592874839365342420,2095,1592874839365188669,imu_link,0.0011113395271,0.00397342175913,0.882726792048,0.46986847888,0.0,0.0,0.0,0.0,0.0,0.0,0.0,0.0,0.0,-0.000571401752892,-0.00106161363367,0.00364452967902,0.0,0.0,0.0,0.0,0.0,0.0,0.0,0.0,0.0,0.0193042668514,-0.0695137432776,-9.82250168324,0.0,0.0,0.0,0.0,0.0,0.0,0.0,0.0,0.0
1592874839375256340,2096,1592874839374986790,imu_link,0.00114881578608,0.00397383446113,0.882737225592,0.469848783563,0.0,0.0,0.0,0.0,0.0,0.0,0.0,0.0,0.0,0.00430288780195,-0.00723519484485,0.00846197062789,0.0,0.0,0.0,0.0,0.0,0.0,0.0,0.0,0.0,0.0241089388262,-0.0719266152009,-9.82252037525,0.0,0.0,0.0,0.0,0.0,0.0,0.0,0.0,0.0
1592874839385379955,2097,1592874839385187300,imu_link,0.00114678852567,0.00395805972337,0.882739426694,0.469844786285,0.0,0.0,0.0,0.0,0.0,0.0,0.0,0.0,0.0,-0.00301801375582,-0.00229947677521,0.00484348271099,0.0,0.0,0.0,0.0,0.0,0.0,0.0,0.0,0.0,0.0288947887253,-0.0792622460052,-9.8153157711,0.0,0.0,0.0,0.0,0.0,0.0,0.0,0.0,0.0
1592874839395125285,2098,1592874839394956446,imu_link,0.00120902879092,0.00397428412766,0.88275539448,0.469814491935,0.0,0.0,0.0,0.0,0.0,0.0,0.0,0.0,0.0,0.0091834854595,-0.0109328639498,0.010868810765,0.0,0.0,0.0,0.0,0.0,0.0,0.0,0.0,0.0,0.0312657633331,-0.0745993088931,-9.8030970335,0.0,0.0,0.0,0.0,0.0,0.0,0.0,0.0,0.0
1592874839405327039,2099,1592874839405174891,imu_link,0.00126089861813,0.00402602782667,0.882768558341,0.469789179994,0.0,0.0,0.0,0.0,0.0,0.0,0.0,0.0,0.0,0.0152952705408,-0.00603025802286,0.0097282506603,0.0,0.0,0.0,0.0,0.0,0.0,0.0,0.0,0.0,0.0336492715403,-0.0674587440677,-9.79570375681,0.0,0.0,0.0,0.0,0.0,0.0,0.0,0.0,0.0
1592874839415353330,2100,1592874839414985354,imu_link,0.00126783449509,0.00406256137293,0.882759095564,0.469806627656,0.0,0.0,0.0,0.0,0.0,0.0,0.0,0.0,0.0,0.00799013650904,0.000208712651311,1.80010686479e-05,0.0,0.0,0.0,0.0,0.0,0.0,0.0,0.0,0.0,0.0360516132321,-0.0722842277959,-9.79576216936,0.0,0.0,0.0,0.0,0.0,0.0,0.0,0.0,0.0
1592874839425079404,2101,1592874839424910975,imu_link,0.00129183544064,0.00406902385971,0.882748595811,0.469826234687,0.0,0.0,0.0,0.0,0.0,0.0,0.0,0.0,0.0,0.00432495068699,-0.00589925806622,-7.31053317474e-05,0.0,0.0,0.0,0.0,0.0,0.0,0.0,0.0,0.0,0.0384727701545,-0.0721868705004,-9.80304679871,0.0,0.0,0.0,0.0,0.0,0.0,0.0,0.0,0.0
1592874839435337995,2102,1592874839435164126,imu_link,0.00127297876171,0.00405292912755,0.882726924081,0.46986714164,0.0,0.0,0.0,0.0,0.0,0.0,0.0,0.0,0.0,-0.0029928026711,0.000274410009788,-0.00489688949336,0.0,0.0,0.0,0.0,0.0,0.0,0.0,0.0,0.0,0.0312845785636,-0.0648511484265,-9.81025724411,0.0,0.0,0.0,0.0,0.0,0.0,0.0,0.0,0.0
1592874839445504041,2103,1592874839445299904,imu_link,0.00126656578721,0.00404830141104,0.882693999556,0.469929048064,0.0,0.0,0.0,0.0,0.0,0.0,0.0,0.0,0.0,0.000684987718032,0.000339586293104,-0.00977391346964,0.0,0.0,0.0,0.0,0.0,0.0,0.0,0.0,0.0,0.0192728952039,-0.0600253361277,-9.81022336483,0.0,0.0,0.0,0.0,0.0,0.0,0.0,0.0,0.0
1592874839455364639,2104,1592874839455015558,imu_link,0.00128512295074,0.00405770652117,0.882686703352,0.46994262118,0.0,0.0,0.0,0.0,0.0,0.0,0.0,0.0,0.0,0.0055435003192,-0.00225075705229,0.00120058889946,0.0,0.0,0.0,0.0,0.0,0.0,0.0,0.0,0.0,0.0144682209473,-0.0600251718424,-9.81023621559,0.0,0.0,0.0,0.0,0.0,0.0,0.0,0.0,0.0
1592874839465117924,2105,1592874839464998718,imu_link,0.00125099120783,0.00406499584599,0.88269128377,0.469934046848,0.0,0.0,0.0,0.0,0.0,0.0,0.0,0.0,0.0,0.000643964374546,0.00623547070771,0.00618870102206,0.0,0.0,0.0,0.0,0.0,0.0,0.0,0.0,0.0,0.0216689621098,-0.0552325177938,-9.80772330761,0.0,0.0,0.0,0.0,0.0,0.0,0.0,0.0,0.0
1592874839475949759,2106,1592874839475503004,imu_link,0.00126154342906,0.00405551330744,0.882689676065,0.469937120356,0.0,0.0,0.0,0.0,0.0,0.0,0.0,0.0,0.0,0.00187198883943,-0.00350489239404,0.00361800157792,0.0,0.0,0.0,0.0,0.0,0.0,0.0,0.0,0.0,0.0240712946746,-0.0552325908095,-9.8077162981,0.0,0.0,0.0,0.0,0.0,0.0,0.0,0.0,0.0
1592874839485268232,2107,1592874839484983042,imu_link,0.00130068969197,0.00405144703123,0.882680670058,0.469953964436,0.0,0.0,0.0,0.0,0.0,0.0,0.0,0.0,0.0,0.00554346806998,-0.00835885479987,0.0011189072268,0.0,0.0,0.0,0.0,0.0,0.0,0.0,0.0,0.0,0.0264799065888,-0.0552002129145,-9.81014041901,0.0,0.0,0.0,0.0,0.0,0.0,0.0,0.0,0.0
1592874839495232886,2108,1592874839494988474,imu_link,0.00128045302813,0.00403895198408,0.882680784122,0.469953913324,0.0,0.0,0.0,0.0,0.0,0.0,0.0,0.0,0.0,-0.00179636715857,0.00136540085876,0.00489542007344,0.0,0.0,0.0,0.0,0.0,0.0,0.0,0.0,0.0,0.0264861813746,-0.0575804194435,-9.81260192394,0.0,0.0,0.0,0.0,0.0,0.0,0.0,0.0,0.0
1592874839505146485,2109,1592874839504966805,imu_link,0.00128365753416,0.00404294855846,0.88266928274,0.469975471804,0.0,0.0,0.0,0.0,0.0,0.0,0.0,0.0,0.0,0.00310315012575,-0.00101270015537,-1.11036934032e-05,0.0,0.0,0.0,0.0,0.0,0.0,0.0,0.0,0.0,0.0240838442463,-0.0599930221215,-9.81264164448,0.0,0.0,0.0,0.0,0.0,0.0,0.0,0.0,0.0
1592874839515172787,2110,1592874839514967478,imu_link,0.00126916126256,0.0040493780433,0.88266370694,0.469985927681,0.0,0.0,0.0,0.0,0.0,0.0,0.0,0.0,0.0,0.00187510570016,0.00261955466578,0.00247793171335,0.0,0.0,0.0,0.0,0.0,0.0,0.0,0.0,0.0,0.0216877819039,-0.0599604799412,-9.81507627964,0.0,0.0,0.0,0.0,0.0,0.0,0.0,0.0,0.0
1592874839525082828,2111,1592874839524914860,imu_link,0.00129812749351,0.00403959604701,0.882652063031,0.4700078001,0.0,0.0,0.0,0.0,0.0,0.0,0.0,0.0,0.0,0.00310313244069,-0.00712080687552,-9.27702014947e-05,0.0,0.0,0.0,0.0,0.0,0.0,0.0,0.0,0.0,0.0264987286646,-0.0599281750619,-9.81749455929,0.0,0.0,0.0,0.0,0.0,0.0,0.0,0.0,0.0
1592874839535567958,2112,1592874839534976619,imu_link,0.00131860737681,0.00405491906604,0.882649087626,0.47001319877,0.0,0.0,0.0,0.0,0.0,0.0,0.0,0.0,0.0,0.00675884271486,-0.00350503569499,0.00363049892937,0.0,0.0,0.0,0.0,0.0,0.0,0.0,0.0,0.0,0.0288822391536,-0.0600256646983,-9.81019883156,0.0,0.0,0.0,0.0,0.0,0.0,0.0,0.0,0.0
1592874839545510601,2113,1592874839544996529,imu_link,0.00131260680154,0.00405541577156,0.882632027171,0.470045248119,0.0,0.0,0.0,0.0,0.0,0.0,0.0,0.0,0.0,0.00188769485784,0.000241623724005,-0.00244124692972,0.0,0.0,0.0,0.0,0.0,0.0,0.0,0.0,0.0,0.0240650221705,-0.0576777630486,-9.80531904697,0.0,0.0,0.0,0.0,0.0,0.0,0.0,0.0,0.0
1592874839555467782,2114,1592874839554972394,imu_link,0.00132341687802,0.00405119673042,0.882617279952,0.470072944874,0.0,0.0,0.0,0.0,0.0,0.0,0.0,0.0,0.0,0.00310941037478,-0.0034232748297,-0.00248708424892,0.0,0.0,0.0,0.0,0.0,0.0,0.0,0.0,0.0,0.0264799065888,-0.0527875235304,-9.81010770798,0.0,0.0,0.0,0.0,0.0,0.0,0.0,0.0,0.0
1592874839565624100,2115,1592874839564986744,imu_link,0.00131395014686,0.00407008308255,0.882608358884,0.470089558262,0.0,0.0,0.0,0.0,0.0,0.0,0.0,0.0,0.0,0.00554654370893,0.00143048068701,2.77458462837e-05,0.0,0.0,0.0,0.0,0.0,0.0,0.0,0.0,0.0,0.0361331694759,-0.0501478648745,-9.82705903053,0.0,0.0,0.0,0.0,0.0,0.0,0.0,0.0,0.0
1592874839575343931,2116,1592874839575025519,imu_link,0.00126978695125,0.00406618525244,0.882611238173,0.470084307363,0.0,0.0,0.0,0.0,0.0,0.0,0.0,0.0,0.0,-0.00179644908199,0.0050303112621,0.00494425266862,0.0,0.0,0.0,0.0,0.0,0.0,0.0,0.0,0.0,0.0409378391691,-0.0501480291598,-9.82704734802,0.0,0.0,0.0,0.0,0.0,0.0,0.0,0.0,0.0
1592874839585338563,2117,1592874839585018156,imu_link,0.00127487545462,0.00404454038995,0.882602205625,0.470101439065,0.0,0.0,0.0,0.0,0.0,0.0,0.0,0.0,0.0,-0.000562116514394,-0.00467739716773,-6.96812013382e-05,0.0,0.0,0.0,0.0,0.0,0.0,0.0,0.0,0.0,0.0337057377677,-0.0526903487742,-9.81737890244,0.0,0.0,0.0,0.0,0.0,0.0,0.0,0.0,0.0
1592874839595242232,2118,1592874839594983112,imu_link,0.0012788941693,0.00404419458328,0.882596105564,0.470112883638,0.0,0.0,0.0,0.0,0.0,0.0,0.0,0.0,0.0,0.00309989893664,-0.00225060464873,0.00119403229574,0.0,0.0,0.0,0.0,0.0,0.0,0.0,0.0,0.0,0.0312971258536,-0.0527227403596,-9.81495478153,0.0,0.0,0.0,0.0,0.0,0.0,0.0,0.0,0.0
1592874839605171300,2119,1592874839604964679,imu_link,0.00128430812461,0.00402935650343,0.882581498912,0.470140417978,0.0,0.0,0.0,0.0,0.0,0.0,0.0,0.0,0.0,0.000665896117111,-0.00342315571566,-0.0024934685534,0.0,0.0,0.0,0.0,0.0,0.0,0.0,0.0,0.0,0.0264924538787,-0.0527225760743,-9.81496763229,0.0,0.0,0.0,0.0,0.0,0.0,0.0,0.0,0.0
1592874839615389444,2120,1592874839615191430,imu_link,0.0012573949215,0.00401414752986,0.882555703346,0.470189042907,0.0,0.0,0.0,0.0,0.0,0.0,0.0,0.0,0.0,-0.00176495590199,0.00275033954096,-0.00730463208835,0.0,0.0,0.0,0.0,0.0,0.0,0.0,0.0,0.0,0.0217003269121,-0.0454194098711,-9.81974344254,0.0,0.0,0.0,0.0,0.0,0.0,0.0,0.0,0.0
1592874839625335684,2121,1592874839624912073,imu_link,0.00123209342893,0.00400798052618,0.882547269144,0.470204993342,0.0,0.0,0.0,0.0,0.0,0.0,0.0,0.0,0.0,0.000659557065563,0.0038739243345,4.76905844482e-05,0.0,0.0,0.0,0.0,0.0,0.0,0.0,0.0,0.0,0.0169019263005,-0.0381486671977,-9.82208812237,0.0,0.0,0.0,0.0,0.0,0.0,0.0,0.0,0.0
1592874839635457406,2122,1592874839634997326,imu_link,0.001262252946,0.00398189004047,0.882544150485,0.470210988508,0.0,0.0,0.0,0.0,0.0,0.0,0.0,0.0,0.0,0.0018749609688,-0.00715336818076,0.00234713305423,0.0,0.0,0.0,0.0,0.0,0.0,0.0,0.0,0.0,0.00967610082589,-0.043071220722,-9.81488118172,0.0,0.0,0.0,0.0,0.0,0.0,0.0,0.0,0.0
1592874839645398427,2123,1592874839645192287,imu_link,0.00126051484759,0.00398937171356,0.882541296649,0.470216286112,0.0,0.0,0.0,0.0,0.0,0.0,0.0,0.0,0.0,0.00431840201554,0.00139789792564,0.00246770403052,0.0,0.0,0.0,0.0,0.0,0.0,0.0,0.0,0.0,0.0120470697293,-0.0480590228923,-9.80279095173,0.0,0.0,0.0,0.0,0.0,0.0,0.0,0.0,0.0
1592874839655167662,2124,1592874839654935373,imu_link,0.00123347848672,0.00398156725554,0.882550150456,0.470199806023,0.0,0.0,0.0,0.0,0.0,0.0,0.0,0.0,0.0,-0.000581136464839,0.00377601155338,0.00737419364737,0.0,0.0,0.0,0.0,0.0,0.0,0.0,0.0,0.0,0.0192540776916,-0.0456466027535,-9.80274071693,0.0,0.0,0.0,0.0,0.0,0.0,0.0,0.0,0.0
1592874839665377220,2125,1592874839665179997,imu_link,0.00124290235854,0.00396414430119,0.882561444254,0.470178729708,0.0,0.0,0.0,0.0,0.0,0.0,0.0,0.0,0.0,0.000637425130787,-0.00479170191328,0.00848467251555,0.0,0.0,0.0,0.0,0.0,0.0,0.0,0.0,0.0,0.0312720335554,-0.0504399504513,-9.80520339012,0.0,0.0,0.0,0.0,0.0,0.0,0.0,0.0,0.0
1592874839675319403,2126,1592874839675020738,imu_link,0.00124676797075,0.00396753122793,0.882572730602,0.470157504953,0.0,0.0,0.0,0.0,0.0,0.0,0.0,0.0,0.0,0.00308087033872,-0.00234853979625,0.00852361708497,0.0,0.0,0.0,0.0,0.0,0.0,0.0,0.0,0.0,0.0360704353079,-0.0577106337994,-9.80285871029,0.0,0.0,0.0,0.0,0.0,0.0,0.0,0.0,0.0
1592874839685119797,2127,1592874839684947721,imu_link,0.00127267084765,0.00396448646873,0.882572380207,0.470158118989,0.0,0.0,0.0,0.0,0.0,0.0,0.0,0.0,0.0,0.00309348186279,-0.00716971229151,0.00357183084344,0.0,0.0,0.0,0.0,0.0,0.0,0.0,0.0,0.0,0.0384664953686,-0.0673939608969,-9.80055258274,0.0,0.0,0.0,0.0,0.0,0.0,0.0,0.0,0.0
1592874839695254503,2128,1592874839695029387,imu_link,0.00129541062943,0.00398344100822,0.88258635478,0.470131662905,0.0,0.0,0.0,0.0,0.0,0.0,0.0,0.0,0.0,0.00674288767529,-0.00358659162171,0.00973833946344,0.0,0.0,0.0,0.0,0.0,0.0,0.0,0.0,0.0,0.0288508743513,-0.0674260969274,-9.79814656973,0.0,0.0,0.0,0.0,0.0,0.0,0.0,0.0,0.0
1592874839705636468,2129,1592874839705395091,imu_link,0.00127520356456,0.00398118694913,0.882569265964,0.470163816963,0.0,0.0,0.0,0.0,0.0,0.0,0.0,0.0,0.0,-0.000552786998243,0.00270135038104,-0.00363676021869,0.0,0.0,0.0,0.0,0.0,0.0,0.0,0.0,0.0,0.021662687324,-0.0625030824915,-9.80538914204,0.0,0.0,0.0,0.0,0.0,0.0,0.0,0.0,0.0
1592874839715226765,2130,1592874839714986690,imu_link,0.00128572166727,0.00398178844527,0.882557653581,0.470185580793,0.0,0.0,0.0,0.0,0.0,0.0,0.0,0.0,0.0,0.0031060777824,-0.00221791616715,-0.00124938105309,0.0,0.0,0.0,0.0,0.0,0.0,0.0,0.0,0.0,0.0192854424939,-0.0599603886716,-9.81508328915,0.0,0.0,0.0,0.0,0.0,0.0,0.0,0.0,0.0
1592874839725329441,2131,1592874839725179938,imu_link,0.00128812602706,0.00401268964349,0.882554784241,0.470190697341,0.0,0.0,0.0,0.0,0.0,0.0,0.0,0.0,0.0,0.00798351501678,0.00139781184104,0.00247704642035,0.0,0.0,0.0,0.0,0.0,0.0,0.0,0.0,0.0,0.0265238232445,-0.0573856044561,-9.82718052864,0.0,0.0,0.0,0.0,0.0,0.0,0.0,0.0,0.0
1592874839735428149,2132,1592874839734990541,imu_link,0.00132810506671,0.00403156849702,0.88254860588,0.470202021318,0.0,0.0,0.0,0.0,0.0,0.0,0.0,0.0,0.0,0.00920838809607,-0.00713724929437,0.00114429152102,0.0,0.0,0.0,0.0,0.0,0.0,0.0,0.0,0.0,0.0337245598435,-0.0598310003057,-9.82476575375,0.0,0.0,0.0,0.0,0.0,0.0,0.0,0.0,0.0
1592874839745449521,2133,1592874839745281333,imu_link,0.00134739732338,0.00405135982647,0.882536903919,0.470223759742,0.0,0.0,0.0,0.0,0.0,0.0,0.0,0.0,0.0,0.00677123525635,-0.00343963792588,-0.00125628901722,0.0,0.0,0.0,0.0,0.0,0.0,0.0,0.0,0.0,0.0337182873394,-0.0671015467495,-9.82243158817,0.0,0.0,0.0,0.0,0.0,0.0,0.0,0.0,0.0
1592874839755109720,2134,1592874839754937865,imu_link,0.00133864020969,0.00408289528535,0.882527387078,0.470241373196,0.0,0.0,0.0,0.0,0.0,0.0,0.0,0.0,0.0,0.00554635073378,0.00265219295302,4.3785897645e-05,0.0,0.0,0.0,0.0,0.0,0.0,0.0,0.0,0.0,0.0337120079901,-0.0743720977567,-9.82009859085,0.0,0.0,0.0,0.0,0.0,0.0,0.0,0.0,0.0
1592874839765562619,2135,1592874839765348844,imu_link,0.00131308303013,0.00407939349761,0.882523761532,0.470248279841,0.0,0.0,0.0,0.0,0.0,0.0,0.0,0.0,0.0,-0.00179032602216,0.00261980251661,0.00246807879762,0.0,0.0,0.0,0.0,0.0,0.0,0.0,0.0,0.0,0.0312908556312,-0.0696440443397,-9.81275146008,0.0,0.0,0.0,0.0,0.0,0.0,0.0,0.0,0.0
1592874839775230793,2136,1592874839774987172,imu_link,0.00131278641975,0.00409008907126,0.882514222608,0.470266089207,0.0,0.0,0.0,0.0,0.0,0.0,0.0,0.0,0.0,0.00310288589024,0.000209042328025,4.79444881015e-06,0.0,0.0,0.0,0.0,0.0,0.0,0.0,0.0,0.0,0.0240524748806,-0.069806157425,-9.80062150955,0.0,0.0,0.0,0.0,0.0,0.0,0.0,0.0,0.0
1592874839785328219,2137,1592874839785178155,imu_link,0.00129135603875,0.00410916977962,0.882513556658,0.470267231943,0.0,0.0,0.0,0.0,0.0,0.0,0.0,0.0,0.0,0.00309341658414,0.0050465596655,0.00373493047339,0.0,0.0,0.0,0.0,0.0,0.0,0.0,0.0,0.0,0.0216689621098,-0.0648832890205,-9.80785181522,0.0,0.0,0.0,0.0,0.0,0.0,0.0,0.0,0.0
1592874839795503132,2138,1592874839795034425,imu_link,0.00131253738454,0.00411355350108,0.882500926041,0.470290837101,0.0,0.0,0.0,0.0,0.0,0.0,0.0,0.0,0.0,0.00432775402812,-0.00343953259578,-0.00126267904333,0.0,0.0,0.0,0.0,0.0,0.0,0.0,0.0,0.0,0.0168831042247,-0.0671983838081,-9.81518492699,0.0,0.0,0.0,0.0,0.0,0.0,0.0,0.0,0.0
1592874839805253932,2139,1592874839804971568,imu_link,0.00128234029148,0.00412153274217,0.882500309989,0.470292006567,0.0,0.0,0.0,0.0,0.0,0.0,0.0,0.0,0.0,-0.00057177521962,0.00626830821188,0.00374176158556,0.0,0.0,0.0,0.0,0.0,0.0,0.0,0.0,0.0,0.0144933155272,-0.0743714406155,-9.82014765739,0.0,0.0,0.0,0.0,0.0,0.0,0.0,0.0,0.0
1592874839815294871,2140,1592874839815002769,imu_link,0.00129406461763,0.00412796322264,0.882493551451,0.470304600194,0.0,0.0,0.0,0.0,0.0,0.0,0.0,0.0,0.0,0.0030997109029,-0.00225052272532,0.00119369419912,0.0,0.0,0.0,0.0,0.0,0.0,0.0,0.0,0.0,0.0241026617587,-0.0743717691861,-9.82012312412,0.0,0.0,0.0,0.0,0.0,0.0,0.0,0.0,0.0
1592874839825316003,2141,1592874839825166931,imu_link,0.00132476177153,0.00415167104319,0.882489471429,0.470311961841,0.0,0.0,0.0,0.0,0.0,0.0,0.0,0.0,0.0,0.00798346196161,-0.00471024871591,0.00239525876741,0.0,0.0,0.0,0.0,0.0,0.0,0.0,0.0,0.0,0.0313096754253,-0.074372024741,-9.82010443211,0.0,0.0,0.0,0.0,0.0,0.0,0.0,0.0,0.0
1592874839835295306,2142,1592874839835028581,imu_link,0.00131547773454,0.00418261023596,0.882488593699,0.47031336073,0.0,0.0,0.0,0.0,0.0,0.0,0.0,0.0,0.0,0.00553684917846,0.00260324670536,0.00370850536173,0.0,0.0,0.0,0.0,0.0,0.0,0.0,0.0,0.0,0.0361206199042,-0.0743397061713,-9.82252271175,0.0,0.0,0.0,0.0,0.0,0.0,0.0,0.0,0.0
1592874839845422428,2143,1592874839845013214,imu_link,0.00133131292644,0.00417127426075,0.882473125063,0.470342440801,0.0,0.0,0.0,0.0,0.0,0.0,0.0,0.0,0.0,0.000665706132818,-0.00586630092786,-0.00252649175064,0.0,0.0,0.0,0.0,0.0,0.0,0.0,0.0,0.0,0.0361143474001,-0.0719595133327,-9.82006003857,0.0,0.0,0.0,0.0,0.0,0.0,0.0,0.0,0.0
1592874839855331758,2144,1592874839854955376,imu_link,0.0013216115141,0.00416690402567,0.882452222832,0.470381722299,0.0,0.0,0.0,0.0,0.0,0.0,0.0,0.0,0.0,0.000672004677791,0.00027446121192,-0.004888115626,0.0,0.0,0.0,0.0,0.0,0.0,0.0,0.0,0.0,0.0265112759545,-0.0598632276058,-9.82235331535,0.0,0.0,0.0,0.0,0.0,0.0,0.0,0.0,0.0
1592874839865383578,2145,1592874839865190313,imu_link,0.00131532442348,0.00413612455572,0.88245434512,0.470378030071,0.0,0.0,0.0,0.0,0.0,0.0,0.0,0.0,0.0,-0.00301842285273,-0.00229925935308,0.00484269572609,0.0,0.0,0.0,0.0,0.0,0.0,0.0,0.0,0.0,0.0217128787655,-0.0525925305672,-9.82470033169,0.0,0.0,0.0,0.0,0.0,0.0,0.0,0.0,0.0
1592874839875341190,2146,1592874839874952434,imu_link,0.0013176310275,0.00410789491092,0.882467825554,0.470352980123,0.0,0.0,0.0,0.0,0.0,0.0,0.0,0.0,0.0,-0.00180932406135,-0.00358621633446,0.00971597619256,0.0,0.0,0.0,0.0,0.0,0.0,0.0,0.0,0.0,0.0217128787655,-0.0525925305672,-9.82470033169,0.0,0.0,0.0,0.0,0.0,0.0,0.0,0.0,0.0
1592874839885137536,2147,1592874839884955101,imu_link,0.00128873710624,0.00408683576865,0.8824701078,0.470348961697,0.0,0.0,0.0,0.0,0.0,0.0,0.0,0.0,0.0,-0.00424016411703,0.00258727892215,0.00490481135724,0.0,0.0,0.0,0.0,0.0,0.0,0.0,0.0,0.0,0.0217066039797,-0.0598630633205,-9.82236616611,0.0,0.0,0.0,0.0,0.0,0.0,0.0,0.0,0.0
1592874839895343608,2148,1592874839895008644,imu_link,0.0012939317151,0.00409325141286,0.88244349022,0.470398828231,0.0,0.0,0.0,0.0,0.0,0.0,0.0,0.0,0.0,0.00312172775479,-0.000914579249776,-0.0073414310446,0.0,0.0,0.0,0.0,0.0,0.0,0.0,0.0,0.0,0.0216815093998,-0.067231026385,-9.81274328232,0.0,0.0,0.0,0.0,0.0,0.0,0.0,0.0,0.0
1592874839905324363,2149,1592874839904977888,imu_link,0.00128213993105,0.00410165009343,0.882445792983,0.470394467475,0.0,0.0,0.0,0.0,0.0,0.0,0.0,0.0,0.0,0.00186845338909,0.00258707112277,0.00492054897467,0.0,0.0,0.0,0.0,0.0,0.0,0.0,0.0,0.0,0.0192728952039,-0.0672634225339,-9.81032032967,0.0,0.0,0.0,0.0,0.0,0.0,0.0,0.0,0.0
1592874839915364190,2150,1592874839914952191,imu_link,0.00124187204827,0.00409646767287,0.882459673935,0.470368579505,0.0,0.0,0.0,0.0,0.0,0.0,0.0,0.0,0.0,-0.00303107858943,0.00618680820114,0.00984336163625,0.0,0.0,0.0,0.0,0.0,0.0,0.0,0.0,0.0,0.0216689621098,-0.0648832890205,-9.80785181522,0.0,0.0,0.0,0.0,0.0,0.0,0.0,0.0,0.0
1592874839925142593,2151,1592874839924935060,imu_link,0.00126007157855,0.00410031157795,0.8824673361,0.470354122318,0.0,0.0,0.0,0.0,0.0,0.0,0.0,0.0,0.0,0.00430558425253,-0.00355376478059,0.00728842945802,0.0,0.0,0.0,0.0,0.0,0.0,0.0,0.0,0.0,0.0240587519482,-0.0625356064178,-9.80295333862,0.0,0.0,0.0,0.0,0.0,0.0,0.0,0.0,0.0
1592874839935229219,2152,1592874839934991279,imu_link,0.00124711648069,0.00411513092547,0.882478061393,0.470333904325,0.0,0.0,0.0,0.0,0.0,0.0,0.0,0.0,0.0,0.00308069608892,0.00253806349757,0.00858850406811,0.0,0.0,0.0,0.0,0.0,0.0,0.0,0.0,0.0,0.028863423923,-0.0649484600872,-9.80297319889,0.0,0.0,0.0,0.0,0.0,0.0,0.0,0.0,0.0
1592874839945131266,2153,1592874839944952708,imu_link,0.00123401898834,0.00411462438532,0.88248300545,0.470324666752,0.0,0.0,0.0,0.0,0.0,0.0,0.0,0.0,0.0,-0.000578179939935,0.00134922241535,0.00611946455594,0.0,0.0,0.0,0.0,0.0,0.0,0.0,0.0,0.0,0.0264610890765,-0.0745991446078,-9.80310988426,0.0,0.0,0.0,0.0,0.0,0.0,0.0,0.0,0.0
1592874839955484155,2154,1592874839955015348,imu_link,0.00126130431315,0.00410221083266,0.882486053794,0.47031898307,0.0,0.0,0.0,0.0,0.0,0.0,0.0,0.0,0.0,0.000643545784923,-0.00720216644613,0.00600832179401,0.0,0.0,0.0,0.0,0.0,0.0,0.0,0.0,0.0,0.0288571468554,-0.0794570792466,-9.80073833466,0.0,0.0,0.0,0.0,0.0,0.0,0.0,0.0,0.0
1592874839965422971,2155,1592874839965226239,imu_link,0.00125913737913,0.00410417995098,0.882492305877,0.470307240373,0.0,0.0,0.0,0.0,0.0,0.0,0.0,0.0,0.0,0.000640389067809,-0.00111037119741,0.00731154798474,0.0,0.0,0.0,0.0,0.0,0.0,0.0,0.0,0.0,0.0336680981796,-0.0770120849833,-9.80312273502,0.0,0.0,0.0,0.0,0.0,0.0,0.0,0.0,0.0
1592874839975284811,2156,1592874839975013217,imu_link,0.0013030706337,0.00410630099555,0.882512386022,0.47026942152,0.0,0.0,0.0,0.0,0.0,0.0,0.0,0.0,0.0,0.00551152262074,-0.00974351702306,0.0133179525108,0.0,0.0,0.0,0.0,0.0,0.0,0.0,0.0,0.0,0.0384915899485,-0.0720894721337,-9.81033551693,0.0,0.0,0.0,0.0,0.0,0.0,0.0,0.0,0.0
1592874839985396454,2157,1592874839985235129,imu_link,0.00133306779154,0.00411690319996,0.882529755189,0.47023664813,0.0,0.0,0.0,0.0,0.0,0.0,0.0,0.0,0.0,0.00551467316109,-0.00606231582421,0.0121452961138,0.0,0.0,0.0,0.0,0.0,0.0,0.0,0.0,0.0,0.0336806409061,-0.0745344481431,-9.80794994831,0.0,0.0,0.0,0.0,0.0,0.0,0.0,0.0,0.0
1592874839995412246,2158,1592874839995010876,imu_link,0.00129860075305,0.00413422936049,0.882533224352,0.47023008166,0.0,0.0,0.0,0.0,0.0,0.0,0.0,0.0,0.0,0.000643531805928,0.0062357058149,0.00618782509174,0.0,0.0,0.0,0.0,0.0,0.0,0.0,0.0,0.0,0.0312720335554,-0.0745668534189,-9.80552582741,0.0,0.0,0.0,0.0,0.0,0.0,0.0,0.0,0.0
1592874840005136095,2159,1592874840004926448,imu_link,0.00130024736868,0.00412673122055,0.882527782987,0.470240355246,0.0,0.0,0.0,0.0,0.0,0.0,0.0,0.0,0.0,-0.000568735861044,-0.00226662964829,0.00240552338079,0.0,0.0,0.0,0.0,0.0,0.0,0.0,0.0,0.0,0.0288822391536,-0.0769145177677,-9.81042430401,0.0,0.0,0.0,0.0,0.0,0.0,0.0,0.0,0.0
1592874840015281883,2160,1592874840015016711,imu_link,0.00127218937969,0.00412136231389,0.882513550914,0.470267188266,0.0,0.0,0.0,0.0,0.0,0.0,0.0,0.0,0.0,-0.00299957630684,0.00390687263033,-0.00240564067431,0.0,0.0,0.0,0.0,0.0,0.0,0.0,0.0,0.0,0.0216752323322,-0.0769142804667,-9.81044299603,0.0,0.0,0.0,0.0,0.0,0.0,0.0,0.0,0.0
1592874840025691279,2161,1592874840025467856,imu_link,0.00122882562586,0.00410488923188,0.882502402268,0.470288368836,0.0,0.0,0.0,0.0,0.0,0.0,0.0,0.0,0.0,-0.00666790616738,0.00633391768149,-0.0011608481125,0.0,0.0,0.0,0.0,0.0,0.0,0.0,0.0,0.0,0.0144870430231,-0.0792292885482,-9.81778311729,0.0,0.0,0.0,0.0,0.0,0.0,0.0,0.0,0.0
1592874840035305892,2162,1592874840034990515,imu_link,0.00119827508558,0.00409306074676,0.882496872049,0.470298928146,0.0,0.0,0.0,0.0,0.0,0.0,0.0,0.0,0.0,-0.00423076269033,0.00385793990653,0.00125602842275,0.0,0.0,0.0,0.0,0.0,0.0,0.0,0.0,0.0,0.0217066039797,-0.0743392133154,-9.82256009579,0.0,0.0,0.0,0.0,0.0,0.0,0.0,0.0,0.0
1592874840045278291,2163,1592874840044997099,imu_link,0.00117003157713,0.00409953188403,0.882502838375,0.470287747156,0.0,0.0,0.0,0.0,0.0,0.0,0.0,0.0,0.0,-0.000578208353055,0.0050141377601,0.00616826750265,0.0,0.0,0.0,0.0,0.0,0.0,0.0,0.0,0.0,0.0241026617587,-0.0719590934925,-9.82009041309,0.0,0.0,0.0,0.0,0.0,0.0,0.0,0.0,0.0
1592874840055783579,2164,1592874840055495634,imu_link,0.00116024825711,0.00410449102204,0.882502809081,0.470287783109,0.0,0.0,0.0,0.0,0.0,0.0,0.0,0.0,0.0,0.000649823784025,0.00138188007812,0.00367919758627,0.0,0.0,0.0,0.0,0.0,0.0,0.0,0.0,0.0,0.0264987286646,-0.0744043250568,-9.81768848896,0.0,0.0,0.0,0.0,0.0,0.0,0.0,0.0,0.0
1592874840065246254,2165,1592874840064999848,imu_link,0.00114936639123,0.00411011750199,0.882497045702,0.470298575607,0.0,0.0,0.0,0.0,0.0,0.0,0.0,0.0,0.0,0.000656129351004,0.00141453553027,0.0012359482143,0.0,0.0,0.0,0.0,0.0,0.0,0.0,0.0,0.0,0.0288947887253,-0.0744368672371,-9.8152515173,0.0,0.0,0.0,0.0,0.0,0.0,0.0,0.0,0.0
1592874840075288065,2166,1592874840074982477,imu_link,0.00114464187757,0.0041235311754,0.88250270714,0.470287846085,0.0,0.0,0.0,0.0,0.0,0.0,0.0,0.0,0.0,0.00308696257974,0.00134915349565,0.00612870811753,0.0,0.0,0.0,0.0,0.0,0.0,0.0,0.0,0.0,0.0264799065888,-0.0696763629094,-9.81033318043,0.0,0.0,0.0,0.0,0.0,0.0,0.0,0.0,0.0
1592874840085144625,2167,1592874840084930470,imu_link,0.00118922467677,0.00412549874366,0.882519439991,0.470256317387,0.0,0.0,0.0,0.0,0.0,0.0,0.0,0.0,0.0,0.00551779613356,-0.0084892035304,0.0108908661079,0.0,0.0,0.0,0.0,0.0,0.0,0.0,0.0,0.0,0.0264924538787,-0.0720241185278,-9.81522464752,0.0,0.0,0.0,0.0,0.0,0.0,0.0,0.0,0.0
1592874840095331791,2168,1592874840095051541,imu_link,0.00117229811466,0.00411226300005,0.882513704469,0.47026723938,0.0,0.0,0.0,0.0,0.0,0.0,0.0,0.0,0.0,-0.00178734309971,0.00141462863688,0.00122959537882,0.0,0.0,0.0,0.0,0.0,0.0,0.0,0.0,0.0,0.0217066039797,-0.0598630633205,-9.82236616611,0.0,0.0,0.0,0.0,0.0,0.0,0.0,0.0,0.0
1592874840105403839,2169,1592874840104996929,imu_link,0.0011757081911,0.00409543015366,0.882510657851,0.470273095064,0.0,0.0,0.0,0.0,0.0,0.0,0.0,0.0,0.0,0.00065294422077,-0.00226664863372,0.00240852801944,0.0,0.0,0.0,0.0,0.0,0.0,0.0,0.0,0.0,0.0193293591496,-0.0476696439087,-9.83192946911,0.0,0.0,0.0,0.0,0.0,0.0,0.0,0.0,0.0
1592874840115535149,2170,1592874840115025605,imu_link,0.00120788806279,0.00408267032714,0.882521788394,0.470252236379,0.0,0.0,0.0,0.0,0.0,0.0,0.0,0.0,0.0,0.00430234060558,-0.00723488431611,0.008460760242,0.0,0.0,0.0,0.0,0.0,0.0,0.0,0.0,0.0,0.0217254237738,-0.0452895103954,-9.82946329117,0.0,0.0,0.0,0.0,0.0,0.0,0.0,0.0,0.0
1592874840125392752,2171,1592874840125200969,imu_link,0.00119861937309,0.00406978879941,0.882538941125,0.47022017984,0.0,0.0,0.0,0.0,0.0,0.0,0.0,0.0,0.0,-0.000590886456152,6.23641524889e-05,0.0109893146421,0.0,0.0,0.0,0.0,0.0,0.0,0.0,0.0,0.0,0.0217128787655,-0.0550052199513,-9.82473187447,0.0,0.0,0.0,0.0,0.0,0.0,0.0,0.0,0.0
1592874840135225186,2172,1592874840134975584,imu_link,0.00117584724105,0.00406009551638,0.88255325302,0.470193458686,0.0,0.0,0.0,0.0,0.0,0.0,0.0,0.0,0.0,-0.00180946853263,0.00252197998128,0.00979718179917,0.0,0.0,0.0,0.0,0.0,0.0,0.0,0.0,0.0,0.0241089388262,-0.0598631363362,-9.82236032486,0.0,0.0,0.0,0.0,0.0,0.0,0.0,0.0,0.0
1592874840145160716,2173,1592874840144975275,imu_link,0.00121055083989,0.004068078847,0.882561871008,0.470177125288,0.0,0.0,0.0,0.0,0.0,0.0,0.0,0.0,0.0,0.00674576773834,-0.0060133386277,0.00848334353576,0.0,0.0,0.0,0.0,0.0,0.0,0.0,0.0,0.0,0.0240901167504,-0.0599605529569,-9.81507043839,0.0,0.0,0.0,0.0,0.0,0.0,0.0,0.0,0.0
1592874840155135971,2174,1592874840154937064,imu_link,0.00120141867022,0.00406501407203,0.882553585765,0.470192726982,0.0,0.0,0.0,0.0,0.0,0.0,0.0,0.0,0.0,0.000656048272834,0.000192936038984,0.00121947848765,0.0,0.0,0.0,0.0,0.0,0.0,0.0,0.0,0.0,0.0288947887253,-0.0599607172422,-9.81505758762,0.0,0.0,0.0,0.0,0.0,0.0,0.0,0.0,0.0
1592874840165358113,2175,1592874840165215543,imu_link,0.0012099170113,0.00405807228764,0.882553748687,0.470192459349,0.0,0.0,0.0,0.0,0.0,0.0,0.0,0.0,0.0,0.00186830384635,-0.00352093767939,0.00483848928399,0.0,0.0,0.0,0.0,0.0,0.0,0.0,0.0,0.0,0.0313222227152,-0.0574182333425,-9.82473888397,0.0,0.0,0.0,0.0,0.0,0.0,0.0,0.0,0.0
